timestamp,Accel X,Accel Y,Accel Z,Gyro X,Gyro Y,Gyro Z,Mag X,Mag Y,Mag Z
1665258253715,4,-2,269,192,-778,-173,3419,2118,-4754
1665258253717,3,-2,268,193,-776,-173,3440,2138,-4815
1665258253717,3,-2,268,193,-776,-173,3440,2138,-4815
1665258253717,3,-2,268,194,-778,-173,3440,2138,-4815
1665258253732,3,-2,268,194,-778,-173,3440,2138,-4815
1665258253734,8,-1,268,192,-776,-172,3440,2138,-4815
1665258253734,8,-1,268,195,-778,-174,3440,2138,-4815
1665258253761,8,-1,268,195,-778,-174,3440,2138,-4815
1665258253763,1,-2,267,192,-776,-170,3440,2138,-4815
1665258253763,1,-2,267,192,-776,-170,3440,2138,-4815
1665258253763,1,-2,267,187,-767,-168,3440,2138,-4815
1665258253763,1,-2,267,187,-767,-168,3440,2138,-4815
1665258253763,6,1,269,192,-775,-176,3440,2138,-4815
1665258253799,6,1,269,192,-775,-176,3440,2138,-4815
1665258253801,6,1,269,192,-775,-168,3440,2138,-4815
1665258253801,6,1,269,189,-774,-169,3440,2138,-4815
1665258253801,2,-4,268,189,-774,-169,3440,2138,-4815
1665258253801,2,-4,268,196,-780,-177,3440,2138,-4815
1665258253801,2,-4,268,196,-780,-177,3440,2138,-4815
1665258253801,3,-1,269,195,-776,-173,3440,2138,-4815
1665258253814,3,-1,269,195,-776,-173,3445,2129,-4803
1665258253816,3,-1,269,186,-774,-166,3445,2129,-4803
1665258253828,3,-1,269,186,-774,-177,3445,2129,-4803
1665258253830,4,-2,269,193,-774,-177,3445,2129,-4803
1665258253830,4,-2,269,198,-783,-177,3445,2129,-4803
1665258253844,4,-2,269,198,-783,-177,3445,2129,-4803
1665258253846,3,-4,268,187,-770,-168,3445,2129,-4803
1665258253846,3,-4,268,187,-770,-168,3445,2129,-4803
1665258253867,3,-4,268,192,-777,-174,3445,2129,-4803
1665258253869,3,-4,268,192,-777,-174,3445,2129,-4803
1665258253869,4,-1,267,192,-774,-174,3445,2129,-4803
1665258253869,4,-1,267,192,-774,-169,3445,2129,-4803
1665258253889,4,-1,267,190,-774,-169,3445,2129,-4803
1665258253892,4,-2,268,193,-774,-176,3445,2129,-4803
1665258253892,4,-2,268,193,-774,-176,3445,2129,-4803
1665258253892,4,-2,268,191,-776,-174,3445,2129,-4803
1665258253907,4,-2,268,191,-776,-174,3445,2129,-4803
1665258253908,4,-2,269,192,-777,-172,3445,2129,-4803
1665258253909,4,-2,269,192,-777,-172,3461,2125,-4768
1665258253922,4,-2,269,193,-776,-173,3461,2125,-4768
1665258253924,4,-2,269,195,-780,-175,3461,2125,-4768
1665258253924,5,-2,268,195,-780,-175,3461,2125,-4768
1665258253940,5,-2,268,191,-776,-171,3461,2125,-4768
1665258253942,5,-2,268,191,-776,-171,3461,2125,-4768
1665258253942,4,-1,267,193,-777,-173,3461,2125,-4768
1665258253942,4,-1,267,193,-777,-173,3461,2125,-4768
1665258253959,4,-1,267,191,-774,-172,3461,2125,-4768
1665258253961,4,-1,267,191,-774,-172,3461,2125,-4768
1665258253961,4,-2,268,188,-770,-171,3461,2125,-4768
1665258253978,4,-2,268,195,-780,-175,3461,2125,-4768
1665258253981,4,-2,268,195,-780,-175,3461,2125,-4768
1665258253981,4,-3,268,191,-773,-171,3461,2125,-4768
1665258253981,4,-3,268,191,-773,-171,3461,2125,-4768
1665258254000,4,-3,268,194,-777,-173,3461,2125,-4768
1665258254002,4,-3,268,194,-777,-173,3461,2125,-4768
1665258254002,4,-2,268,191,-772,-175,3461,2125,-4768
1665258254002,4,-2,268,191,-772,-171,3461,2125,-4768
1665258254015,4,-2,268,189,-771,-171,3419,2088,-4829
1665258254016,4,-2,269,194,-777,-173,3419,2088,-4829
1665258254028,3,-2,269,194,-777,-173,3419,2088,-4829
1665258254031,3,-2,269,193,-776,-174,3419,2088,-4829
1665258254031,3,-2,269,193,-776,-174,3419,2088,-4829
1665258254053,4,-3,268,195,-777,-174,3419,2088,-4829
1665258254055,4,-3,268,195,-777,-174,3419,2088,-4829
1665258254055,4,-3,268,192,-774,-172,3419,2088,-4829
1665258254055,4,-3,268,193,-775,-172,3419,2088,-4829
1665258254075,4,-2,269,193,-775,-172,3419,2088,-4829
1665258254077,4,-2,269,195,-779,-173,3419,2088,-4829
1665258254077,4,-2,269,195,-779,-173,3419,2088,-4829
1665258254077,4,-3,268,190,-774,-170,3419,2088,-4829
1665258254077,4,-3,268,190,-774,-170,3419,2088,-4829
1665258254095,4,-3,268,192,-775,-173,3419,2088,-4829
1665258254097,4,-3,268,192,-775,-173,3419,2088,-4829
1665258254097,3,-1,268,190,-773,-171,3419,2088,-4829
1665258254112,3,-1,268,194,-778,-172,3419,2088,-4829
1665258254113,3,-1,268,194,-778,-172,3438,2096,-4854
1665258254113,3,-2,269,192,-778,-173,3438,2096,-4854
1665258254126,3,-2,269,192,-778,-173,3438,2096,-4854
1665258254128,3,-2,269,191,-774,-173,3438,2096,-4854
1665258254128,3,-2,269,191,-774,-173,3438,2096,-4854
1665258254142,4,-2,268,191,-775,-173,3438,2096,-4854
1665258254144,4,-2,268,191,-775,-173,3438,2096,-4854
1665258254144,4,-2,268,190,-774,-171,3438,2096,-4854
1665258254161,4,-2,269,193,-777,-173,3438,2096,-4854
1665258254162,4,-2,269,193,-777,-173,3438,2096,-4854
1665258254162,4,-2,269,191,-774,-173,3438,2096,-4854
1665258254187,4,-2,269,191,-774,-173,3438,2096,-4854
1665258254192,4,-2,268,191,-776,-172,3438,2096,-4854
1665258254192,4,-2,268,191,-776,-172,3438,2096,-4854
1665258254192,4,-2,268,194,-776,-174,3438,2096,-4854
1665258254192,4,-2,268,194,-776,-172,3438,2096,-4854
1665258254192,4,-2,269,192,-774,-172,3438,2096,-4854
1665258254205,4,-2,269,194,-777,-173,3438,2096,-4854
1665258254207,4,-2,269,194,-777,-173,3438,2096,-4854
1665258254221,3,-2,268,192,-776,-172,3424,2095,-4838
1665258254223,3,-2,268,192,-776,-172,3424,2095,-4838
1665258254223,3,-2,268,194,-779,-174,3424,2095,-4838
1665258254238,3,-2,268,194,-779,-174,3424,2095,-4838
1665258254242,4,-3,267,192,-775,-173,3424,2095,-4838
1665258254242,4,-3,267,191,-774,-171,3424,2095,-4838
1665258254242,4,-3,267,191,-774,-171,3424,2095,-4838
1665258254258,4,-3,268,194,-776,-173,3424,2095,-4838
1665258254259,4,-3,268,194,-776,-173,3424,2095,-4838
1665258254259,4,-3,268,191,-774,-172,3424,2095,-4838
1665258254278,4,-3,268,191,-774,-172,3424,2095,-4838
1665258254280,4,-2,267,192,-775,-173,3424,2095,-4838
1665258254281,4,-2,267,192,-775,-173,3424,2095,-4838
1665258254281,4,-2,267,191,-775,-173,3424,2095,-4838
1665258254306,4,-2,267,194,-779,-172,3424,2095,-4838
1665258254309,4,-3,268,194,-779,-172,3424,2095,-4838
1665258254309,4,-3,268,194,-777,-172,3424,2095,-4838
1665258254309,4,-3,268,194,-777,-172,3424,2095,-4838
1665258254309,4,-3,268,191,-774,-173,3431,2101,-4800
1665258254323,4,-3,268,191,-774,-173,3431,2101,-4800
1665258254324,4,-3,268,193,-777,-173,3431,2101,-4800
1665258254325,4,-3,268,193,-777,-173,3431,2101,-4800
1665258254339,4,-2,268,191,-774,-172,3431,2101,-4800
1665258254341,4,-2,268,193,-777,-173,3431,2101,-4800
1665258254341,4,-2,268,193,-777,-173,3431,2101,-4800
1665258254356,3,-3,268,193,-776,-173,3431,2101,-4800
1665258254358,3,-3,268,193,-776,-173,3431,2101,-4800
1665258254358,3,-3,268,194,-778,-175,3431,2101,-4800
1665258254375,3,-3,268,194,-778,-175,3431,2101,-4800
1665258254376,4,-2,269,194,-778,-175,3431,2101,-4800
1665258254376,4,-2,269,194,-773,-171,3431,2101,-4800
1665258254395,4,-2,269,189,-773,-171,3431,2101,-4800
1665258254397,3,-2,268,192,-775,-174,3431,2101,-4800
1665258254397,3,-2,268,192,-775,-174,3431,2101,-4800
1665258254397,3,-2,268,191,-775,-173,3431,2101,-4800
1665258254423,3,-2,268,191,-775,-173,3431,2101,-4800
1665258254425,4,-2,269,191,-775,-172,3431,2101,-4800
1665258254425,4,-2,269,191,-775,-172,3435,2127,-4790
1665258254425,4,-2,269,194,-778,-174,3435,2127,-4790
1665258254425,4,-2,269,193,-775,-173,3435,2127,-4790
1665258254451,4,-2,269,193,-775,-173,3435,2127,-4790
1665258254453,4,-2,269,193,-777,-172,3435,2127,-4790
1665258254453,4,-2,269,193,-777,-172,3435,2127,-4790
1665258254453,3,-2,268,190,-774,-172,3435,2127,-4790
1665258254453,3,-2,268,190,-774,-172,3435,2127,-4790
1665258254453,3,-2,268,195,-778,-174,3435,2127,-4790
1665258254470,3,-2,268,195,-778,-174,3435,2127,-4790
1665258254472,4,-2,269,192,-774,-173,3435,2127,-4790
1665258254472,4,-2,269,193,-776,-173,3435,2127,-4790
1665258254490,4,-2,269,193,-776,-173,3435,2127,-4790
1665258254492,3,-2,269,193,-777,-172,3435,2127,-4790
1665258254492,3,-2,269,193,-777,-172,3435,2127,-4790
1665258254492,3,-2,269,194,-778,-174,3435,2127,-4790
1665258254517,3,-2,269,194,-778,-174,3435,2127,-4790
1665258254519,4,-2,269,193,-777,-174,3435,2127,-4790
1665258254520,4,-2,269,193,-777,-174,3414,2102,-4776
1665258254520,4,-2,269,191,-775,-172,3414,2102,-4776
1665258254520,4,-2,268,191,-775,-172,3414,2102,-4776
1665258254546,4,-2,268,191,-775,-172,3414,2102,-4776
1665258254550,4,-2,268,190,-773,-172,3414,2102,-4776
1665258254550,4,-2,268,190,-773,-172,3414,2102,-4776
1665258254550,5,-2,268,191,-775,-171,3414,2102,-4776
1665258254550,5,-2,268,191,-775,-171,3414,2102,-4776
1665258254564,5,-2,268,193,-776,-173,3414,2102,-4776
1665258254566,5,-2,268,193,-775,-171,3414,2102,-4776
1665258254566,4,-2,267,192,-775,-171,3414,2102,-4776
1665258254582,4,-2,267,194,-776,-173,3414,2102,-4776
1665258254584,4,-2,267,194,-776,-173,3414,2102,-4776
1665258254585,4,-2,268,191,-773,-172,3414,2102,-4776
1665258254585,4,-2,268,191,-773,-172,3414,2102,-4776
1665258254607,4,-2,268,194,-777,-174,3414,2102,-4776
1665258254609,4,-2,268,194,-777,-174,3414,2102,-4776
1665258254609,4,-3,268,192,-775,-174,3414,2102,-4776
1665258254609,4,-3,268,190,-775,-171,3414,2102,-4776
1665258254624,4,-3,268,190,-775,-171,3400,2093,-4782
1665258254626,4,-2,269,193,-777,-172,3400,2093,-4782
1665258254626,4,-2,269,193,-777,-172,3400,2093,-4782
1665258254643,4,-2,269,190,-773,-171,3400,2093,-4782
1665258254645,4,-2,269,190,-773,-171,3400,2093,-4782
1665258254645,4,-3,268,196,-778,-174,3400,2093,-4782
1665258254645,4,-3,268,196,-778,-174,3400,2093,-4782
1665258254663,4,-3,268,191,-773,-172,3400,2093,-4782
1665258254666,4,-3,268,194,-776,-174,3400,2093,-4782
1665258254666,4,-2,268,194,-776,-174,3400,2093,-4782
1665258254666,4,-2,268,194,-777,-173,3400,2093,-4782
1665258254687,4,-2,268,194,-777,-173,3400,2093,-4782
1665258254688,3,-3,269,190,-775,-171,3400,2093,-4782
1665258254688,3,-3,269,190,-775,-171,3400,2093,-4782
1665258254688,3,-3,269,192,-777,-174,3400,2093,-4782
1665258254706,3,-3,269,192,-777,-174,3400,2093,-4782
1665258254707,4,-2,269,192,-775,-174,3400,2093,-4782
1665258254707,4,-2,269,192,-775,-173,3400,2093,-4782
1665258254722,4,-2,269,192,-775,-173,3443,2099,-4790
1665258254724,4,-1,269,191,-773,-171,3443,2099,-4790
1665258254724,4,-1,269,191,-773,-171,3443,2099,-4790
1665258254742,4,-1,269,193,-776,-173,3443,2099,-4790
1665258254744,4,-1,269,193,-776,-173,3443,2099,-4790
1665258254744,3,-2,269,193,-777,-174,3443,2099,-4790
1665258254744,3,-2,269,193,-775,-172,3443,2099,-4790
1665258254762,3,-2,269,189,-775,-172,3443,2099,-4790
1665258254764,3,-2,269,192,-777,-172,3443,2099,-4790
1665258254764,3,-2,269,192,-777,-172,3443,2099,-4790
1665258254764,3,-2,269,192,-776,-172,3443,2099,-4790
1665258254784,3,-2,269,192,-776,-172,3443,2099,-4790
1665258254786,3,-2,268,191,-776,-174,3443,2099,-4790
1665258254786,3,-2,268,191,-776,-174,3443,2099,-4790
1665258254786,3,-2,268,192,-777,-172,3443,2099,-4790
1665258254798,3,-2,268,193,-777,-172,3443,2099,-4790
1665258254800,3,-2,269,193,-777,-172,3443,2099,-4790
1665258254800,3,-2,269,193,-777,-173,3443,2099,-4790
1665258254813,3,-2,269,193,-777,-173,3443,2099,-4790
1665258254815,4,-2,269,190,-774,-171,3422,2125,-4792
1665258254831,4,-2,269,190,-774,-171,3422,2125,-4792
1665258254833,4,-2,269,197,-779,-176,3422,2125,-4792
1665258254833,4,-2,269,197,-779,-176,3422,2125,-4792
1665258254850,4,-2,269,192,-774,-172,3422,2125,-4792
1665258254852,4,-2,269,193,-777,-173,3422,2125,-4792
1665258254853,4,-2,269,193,-777,-173,3422,2125,-4792
1665258254853,4,-2,268,194,-779,-174,3422,2125,-4792
1665258254873,4,-2,268,194,-779,-174,3422,2125,-4792
1665258254877,4,-2,268,191,-774,-172,3422,2125,-4792
1665258254877,4,-2,268,191,-774,-172,3422,2125,-4792
1665258254877,4,-3,268,194,-778,-174,3422,2125,-4792
1665258254877,4,-3,268,194,-778,-172,3422,2125,-4792
1665258254890,4,-3,268,192,-776,-172,3422,2125,-4792
1665258254892,4,-2,269,193,-777,-173,3422,2125,-4792
1665258254906,4,-2,269,193,-777,-173,3422,2125,-4792
1665258254908,4,-2,269,194,-777,-174,3422,2125,-4792
1665258254908,4,-2,269,194,-777,-174,3422,2125,-4792
1665258254925,4,-1,269,194,-776,-174,3447,2121,-4809
1665258254927,4,-1,269,194,-776,-174,3447,2121,-4809
1665258254927,4,-1,269,192,-774,-172,3447,2121,-4809
1665258254927,4,-1,269,192,-775,-172,3447,2121,-4809
1665258254945,4,-1,269,192,-775,-172,3447,2121,-4809
1665258254948,4,-1,269,193,-776,-174,3447,2121,-4809
1665258254948,4,-1,269,193,-776,-174,3447,2121,-4809
1665258254948,5,-2,268,192,-775,-173,3447,2121,-4809
1665258254967,5,-2,268,192,-775,-173,3447,2121,-4809
1665258254968,5,-2,268,194,-777,-173,3447,2121,-4809
1665258254968,5,-2,268,194,-777,-173,3447,2121,-4809
1665258254981,4,-1,269,194,-776,-173,3447,2121,-4809
1665258254983,4,-1,269,192,-775,-173,3447,2121,-4809
1665258254983,4,-1,269,192,-775,-173,3447,2121,-4809
1665258254995,4,-2,268,194,-778,-174,3447,2121,-4809
1665258254997,4,-2,268,194,-778,-174,3447,2121,-4809
1665258254997,4,-2,268,192,-775,-173,3447,2121,-4809
1665258255020,4,-2,268,192,-775,-173,3447,2121,-4809
1665258255022,4,-1,269,195,-778,-174,3447,2121,-4809
1665258255022,4,-1,269,195,-778,-174,3455,2083,-4817
1665258255022,4,-1,269,192,-775,-172,3455,2083,-4817
1665258255042,4,-1,268,191,-775,-173,3455,2083,-4817
1665258255044,4,-2,268,191,-775,-173,3455,2083,-4817
1665258255044,4,-2,268,193,-777,-174,3455,2083,-4817
1665258255044,4,-2,268,193,-777,-174,3455,2083,-4817
1665258255062,3,-2,269,192,-775,-172,3455,2083,-4817
1665258255063,3,-2,269,192,-775,-172,3455,2083,-4817
1665258255063,3,-2,269,192,-778,-172,3455,2083,-4817
1665258255063,3,-2,269,192,-778,-172,3455,2083,-4817
1665258255077,4,-2,268,193,-776,-172,3455,2083,-4817
1665258255079,4,-2,268,194,-777,-176,3455,2083,-4817
1665258255079,4,-2,268,194,-777,-176,3455,2083,-4817
1665258255091,4,-2,268,192,-776,-173,3455,2083,-4817
1665258255092,4,-2,268,192,-776,-173,3455,2083,-4817
1665258255109,4,-2,268,193,-775,-173,3455,2083,-4817
1665258255111,4,-2,268,193,-775,-173,3455,2083,-4817
1665258255111,4,-1,269,193,-775,-173,3455,2083,-4817
1665258255127,4,-1,269,190,-774,-170,3456,2103,-4790
1665258255128,4,-1,269,190,-774,-170,3456,2103,-4790
1665258255128,3,-2,269,196,-779,-174,3456,2103,-4790
1665258255129,3,-2,269,196,-779,-174,3456,2103,-4790
1665258255152,3,-2,269,193,-775,-172,3456,2103,-4790
1665258255155,3,-2,269,193,-775,-172,3456,2103,-4790
1665258255155,4,-1,269,191,-775,-172,3456,2103,-4790
1665258255155,4,-1,269,191,-775,-172,3456,2103,-4790
1665258255155,4,-1,269,193,-776,-172,3456,2103,-4790
1665258255171,4,-1,269,191,-773,-172,3456,2103,-4790
1665258255172,4,-2,268,191,-773,-172,3456,2103,-4790
1665258255173,4,-2,268,192,-775,-172,3456,2103,-4790
1665258255188,4,-2,268,192,-775,-172,3456,2103,-4790
1665258255189,3,-2,269,190,-774,-170,3456,2103,-4790
1665258255189,3,-2,269,190,-774,-170,3456,2103,-4790
1665258255206,3,-2,269,191,-775,-172,3456,2103,-4790
1665258255208,3,-2,269,191,-775,-172,3456,2103,-4790
1665258255208,4,-2,268,191,-773,-171,3456,2103,-4790
1665258255227,4,-2,268,193,-778,-175,3456,2103,-4790
1665258255228,4,-2,268,193,-778,-175,3448,2090,-4811
1665258255229,3,-2,270,195,-779,-175,3448,2090,-4811
1665258255229,3,-2,270,195,-779,-175,3448,2090,-4811
1665258255251,3,-2,270,190,-775,-173,3448,2090,-4811
1665258255254,3,-2,270,190,-775,-173,3448,2090,-4811
1665258255254,4,-1,270,194,-777,-174,3448,2090,-4811
1665258255254,4,-1,270,194,-773,-171,3448,2090,-4811
1665258255254,4,-1,270,190,-773,-171,3448,2090,-4811
1665258255270,4,-2,268,194,-779,-174,3448,2090,-4811
1665258255272,4,-2,268,194,-779,-174,3448,2090,-4811
1665258255272,4,-2,268,194,-776,-173,3448,2090,-4811
1665258255288,4,-2,268,194,-776,-173,3448,2090,-4811
1665258255290,4,-2,269,192,-777,-172,3448,2090,-4811
1665258255290,4,-2,269,192,-777,-172,3448,2090,-4811
1665258255305,4,-2,269,193,-776,-173,3448,2090,-4811
1665258255307,4,-2,269,190,-773,-171,3448,2090,-4811
1665258255307,4,-2,268,190,-773,-171,3448,2090,-4811
1665258255307,4,-2,268,195,-780,-174,3448,2090,-4811
1665258255329,4,-2,268,195,-780,-174,3420,2127,-4805
1665258255331,4,-2,269,192,-777,-173,3420,2127,-4805
1665258255331,4,-2,269,192,-777,-173,3420,2127,-4805
1665258255331,4,-2,269,194,-777,-173,3420,2127,-4805
1665258255358,4,-2,269,194,-777,-173,3420,2127,-4805
1665258255360,4,-2,269,195,-778,-174,3420,2127,-4805
1665258255360,4,-2,269,191,-774,-170,3420,2127,-4805
1665258255360,4,-2,269,191,-774,-170,3420,2127,-4805
1665258255361,3,-2,270,196,-779,-175,3420,2127,-4805
1665258255373,3,-2,270,196,-779,-175,3420,2127,-4805
1665258255375,3,-2,270,190,-773,-171,3420,2127,-4805
1665258255375,3,-2,270,190,-773,-171,3420,2127,-4805
1665258255389,4,-3,269,194,-778,-174,3420,2127,-4805
1665258255390,4,-3,269,194,-778,-174,3420,2127,-4805
1665258255390,4,-3,269,192,-775,-172,3420,2127,-4805
1665258255406,4,-3,269,193,-775,-172,3420,2127,-4805
1665258255409,3,-2,269,193,-775,-172,3420,2127,-4805
1665258255409,3,-2,269,192,-776,-173,3420,2127,-4805
1665258255424,3,-2,269,192,-776,-173,3420,2127,-4805
1665258255425,4,-2,268,191,-774,-171,3441,2117,-4807
1665258255425,4,-2,268,191,-774,-171,3441,2117,-4807
1665258255447,4,-2,268,195,-779,-175,3441,2117,-4807
1665258255450,4,-2,268,195,-774,-171,3441,2117,-4807
1665258255450,4,-3,269,191,-774,-171,3441,2117,-4807
1665258255450,4,-3,269,194,-778,-174,3441,2117,-4807
1665258255451,4,-3,269,194,-778,-174,3441,2117,-4807
1665258255482,4,-2,268,194,-777,-173,3441,2117,-4807
1665258255484,4,-2,268,194,-777,-173,3441,2117,-4807
1665258255484,4,-2,268,193,-776,-173,3441,2117,-4807
1665258255484,4,-2,268,193,-776,-173,3441,2117,-4807
1665258255484,4,-2,269,194,-777,-174,3441,2117,-4807
1665258255484,4,-2,269,191,-773,-172,3441,2117,-4807
1665258255505,4,-2,269,191,-773,-172,3441,2117,-4807
1665258255506,3,-2,269,193,-776,-174,3441,2117,-4807
1665258255506,3,-2,269,193,-776,-174,3441,2117,-4807
1665258255506,3,-2,269,190,-774,-173,3441,2117,-4807
1665258255526,3,-2,269,190,-774,-173,3441,2117,-4807
1665258255528,4,-2,268,192,-775,-173,3442,2145,-4778
1665258255528,4,-2,268,192,-775,-173,3442,2145,-4778
1665258255528,4,-2,268,191,-775,-173,3442,2145,-4778
1665258255550,4,-2,268,192,-777,-173,3442,2145,-4778
1665258255553,4,-2,269,192,-777,-173,3442,2145,-4778
1665258255553,4,-2,269,194,-779,-174,3442,2145,-4778
1665258255553,4,-2,269,194,-779,-174,3442,2145,-4778
1665258255553,4,-2,269,192,-776,-172,3442,2145,-4778
1665258255578,4,-2,269,192,-776,-172,3442,2145,-4778
1665258255581,4,-2,269,193,-776,-174,3442,2145,-4778
1665258255582,4,-2,269,193,-776,-174,3442,2145,-4778
1665258255582,3,-2,269,192,-776,-174,3442,2145,-4778
1665258255582,3,-2,269,191,-775,-173,3442,2145,-4778
1665258255603,3,-2,269,191,-775,-173,3442,2145,-4778
1665258255603,4,-2,268,194,-776,-174,3442,2145,-4778
1665258255605,4,-2,268,194,-776,-174,3442,2145,-4778
1665258255605,4,-2,268,193,-777,-173,3442,2145,-4778
1665258255622,4,-2,268,193,-777,-173,3442,2145,-4778
1665258255624,3,-2,269,193,-777,-173,3442,2145,-4778
1665258255624,3,-2,269,193,-775,-172,3424,2109,-4790
1665258255624,3,-2,269,192,-775,-172,3424,2109,-4790
1665258255644,4,-1,269,194,-778,-173,3424,2109,-4790
1665258255646,4,-1,269,194,-778,-173,3424,2109,-4790
1665258255646,4,-1,269,196,-778,-173,3424,2109,-4790
1665258255646,4,-1,269,196,-778,-173,3424,2109,-4790
1665258255666,3,-2,269,192,-776,-172,3424,2109,-4790
1665258255668,3,-2,269,192,-776,-172,3424,2109,-4790
1665258255668,3,-2,269,194,-777,-174,3424,2109,-4790
1665258255668,3,-2,269,191,-775,-172,3424,2109,-4790
1665258255689,3,-1,268,191,-775,-172,3424,2109,-4790
1665258255691,3,-1,268,194,-777,-175,3424,2109,-4790
1665258255692,3,-1,268,194,-777,-175,3424,2109,-4790
1665258255692,3,-2,269,192,-776,-173,3424,2109,-4790
1665258255708,3,-2,269,192,-776,-173,3424,2109,-4790
1665258255709,3,-2,269,193,-776,-173,3424,2109,-4790
1665258255709,3,-2,269,193,-776,-173,3424,2109,-4790
1665258255710,5,-3,269,192,-776,-173,3424,2109,-4790
1665258255723,5,-3,269,193,-777,-173,3429,2127,-4859
1665258255725,5,-3,269,193,-777,-173,3429,2127,-4859
1665258255748,4,-2,269,194,-778,-174,3429,2127,-4859
1665258255749,4,-2,269,194,-778,-174,3429,2127,-4859
1665258255749,4,-2,269,192,-774,-173,3429,2127,-4859
1665258255749,4,-2,269,192,-774,-173,3429,2127,-4859
1665258255750,3,-2,269,195,-778,-175,3429,2127,-4859
1665258255766,3,-2,269,195,-778,-173,3429,2127,-4859
1665258255768,3,-2,269,193,-775,-173,3429,2127,-4859
1665258255768,3,-2,269,191,-774,-172,3429,2127,-4859
1665258255790,4,-2,269,191,-774,-172,3429,2127,-4859
1665258255791,4,-2,269,191,-774,-173,3429,2127,-4859
1665258255791,4,-2,269,191,-774,-173,3429,2127,-4859
1665258255791,3,-2,269,191,-775,-172,3429,2127,-4859
1665258255791,3,-2,269,191,-775,-172,3429,2127,-4859
1665258255805,3,-2,269,195,-777,-173,3429,2127,-4859
1665258255807,3,-2,269,195,-775,-173,3429,2127,-4859
1665258255807,4,-2,268,192,-775,-173,3429,2127,-4859
1665258255825,4,-2,268,194,-778,-175,3429,2127,-4859
1665258255826,4,-2,268,194,-778,-175,3443,2122,-4803
1665258255826,3,-2,269,193,-777,-173,3443,2122,-4803
1665258255845,3,-2,269,193,-777,-173,3443,2122,-4803
1665258255847,3,-2,269,193,-776,-172,3443,2122,-4803
1665258255848,3,-2,269,193,-776,-172,3443,2122,-4803
1665258255848,3,-2,268,194,-779,-175,3443,2122,-4803
1665258255866,3,-2,268,192,-774,-172,3443,2122,-4803
1665258255868,3,-2,268,192,-774,-172,3443,2122,-4803
1665258255868,3,-2,268,194,-777,-172,3443,2122,-4803
1665258255868,3,-2,268,194,-777,-172,3443,2122,-4803
1665258255880,3,-2,268,194,-777,-174,3443,2122,-4803
1665258255882,3,-2,268,194,-777,-174,3443,2122,-4803
1665258255893,4,-2,268,191,-775,-171,3443,2122,-4803
1665258255895,4,-2,268,191,-775,-171,3443,2122,-4803
1665258255895,4,-2,268,193,-778,-175,3443,2122,-4803
1665258255910,4,-2,268,190,-774,-173,3443,2122,-4803
1665258255912,4,-2,268,190,-774,-173,3443,2122,-4803
1665258255912,4,-2,268,192,-774,-173,3443,2122,-4803
1665258255927,4,-2,268,192,-774,-173,3428,2112,-4784
1665258255929,4,-1,269,191,-776,-172,3428,2112,-4784
1665258255929,4,-1,269,191,-776,-172,3428,2112,-4784
1665258255946,4,-1,269,192,-777,-173,3428,2112,-4784
1665258255950,4,-1,269,192,-777,-172,3428,2112,-4784
1665258255950,4,-2,268,192,-776,-172,3428,2112,-4784
1665258255950,4,-2,268,190,-774,-170,3428,2112,-4784
1665258255970,4,-2,268,190,-774,-170,3428,2112,-4784
1665258255972,3,-2,269,192,-777,-174,3428,2112,-4784
1665258255972,3,-2,269,192,-777,-174,3428,2112,-4784
1665258255972,3,-2,269,190,-775,-172,3428,2112,-4784
1665258255988,3,-2,269,190,-775,-172,3428,2112,-4784
1665258255990,4,-2,268,193,-778,-173,3428,2112,-4784
1665258255990,4,-2,268,192,-777,-172,3428,2112,-4784
1665258256012,4,-2,268,192,-777,-172,3428,2112,-4784
1665258256015,4,-2,269,192,-776,-172,3428,2112,-4784
1665258256015,4,-2,269,192,-776,-172,3428,2112,-4784
1665258256015,4,-2,269,191,-775,-174,3428,2112,-4784
1665258256016,4,-2,269,191,-775,-174,3428,2112,-4784
1665258256032,4,-2,268,192,-776,-172,3450,2124,-4802
1665258256034,4,-2,268,192,-776,-172,3450,2124,-4802
1665258256034,4,-2,268,195,-778,-174,3450,2124,-4802
1665258256056,4,-2,268,193,-775,-172,3450,2124,-4802
1665258256057,4,-2,269,193,-775,-172,3450,2124,-4802
1665258256057,4,-2,269,196,-779,-174,3450,2124,-4802
1665258256057,4,-2,269,196,-779,-174,3450,2124,-4802
1665258256057,4,-3,269,192,-775,-173,3450,2124,-4802
1665258256072,4,-3,269,192,-775,-173,3450,2124,-4802
1665258256073,4,-3,269,193,-776,-175,3450,2124,-4802
1665258256074,4,-3,269,193,-776,-175,3450,2124,-4802
1665258256092,4,-2,269,193,-776,-174,3450,2124,-4802
1665258256093,4,-2,269,192,-775,-172,3450,2124,-4802
1665258256093,4,-2,269,192,-775,-172,3450,2124,-4802
1665258256113,4,-1,269,195,-779,-175,3450,2124,-4802
1665258256115,4,-1,269,195,-779,-175,3450,2124,-4802
1665258256115,4,-1,269,193,-775,-172,3450,2124,-4802
1665258256115,4,-1,269,193,-775,-172,3450,2124,-4802
1665258256136,3,-2,269,191,-775,-171,3468,2124,-4806
1665258256137,3,-2,269,191,-775,-176,3468,2124,-4806
1665258256137,3,-2,269,197,-779,-176,3468,2124,-4806
1665258256137,3,-2,268,193,-777,-173,3468,2124,-4806
1665258256155,4,-2,268,193,-777,-173,3468,2124,-4806
1665258256157,4,-2,268,193,-777,-171,3468,2124,-4806
1665258256157,4,-2,268,193,-777,-171,3468,2124,-4806
1665258256157,4,-2,268,189,-772,-171,3468,2124,-4806
1665258256173,4,-2,268,189,-772,-171,3468,2124,-4806
1665258256174,4,-2,268,195,-780,-175,3468,2124,-4806
1665258256174,4,-2,268,191,-774,-172,3468,2124,-4806
1665258256192,3,-2,267,191,-774,-172,3468,2124,-4806
1665258256194,3,-2,267,192,-775,-173,3468,2124,-4806
1665258256194,3,-2,267,192,-775,-173,3468,2124,-4806
1665258256194,4,-2,268,194,-779,-174,3468,2124,-4806
1665258256217,4,-2,268,194,-779,-174,3468,2124,-4806
1665258256220,4,-2,268,193,-777,-172,3468,2124,-4806
1665258256220,4,-2,268,193,-777,-172,3468,2124,-4806
1665258256220,3,-2,269,195,-780,-174,3468,2124,-4806
1665258256221,3,-2,269,189,-774,-172,3452,2129,-4770
1665258256237,3,-2,269,189,-774,-172,3452,2129,-4770
1665258256239,5,-3,269,194,-776,-172,3452,2129,-4770
1665258256239,5,-3,269,194,-776,-172,3452,2129,-4770
1665258256254,5,-3,269,192,-775,-172,3452,2129,-4770
1665258256256,5,-3,269,192,-775,-172,3452,2129,-4770
1665258256256,4,-2,268,193,-777,-173,3452,2129,-4770
1665258256272,4,-2,268,193,-777,-173,3452,2129,-4770
1665258256273,4,-2,268,193,-777,-173,3452,2129,-4770
1665258256274,4,-2,269,193,-775,-174,3452,2129,-4770
1665258256295,4,-1,269,193,-775,-174,3452,2129,-4770
1665258256297,4,-1,269,197,-781,-176,3452,2129,-4770
1665258256297,4,-1,269,197,-781,-176,3452,2129,-4770
1665258256297,4,-2,269,194,-778,-175,3452,2129,-4770
1665258256297,4,-2,269,194,-778,-175,3452,2129,-4770
1665258256323,4,-2,269,192,-776,-174,3452,2129,-4770
1665258256325,4,-2,269,192,-773,-190,3452,2129,-4770
1665258256325,-22,-36,269,181,-773,-190,3452,2129,-4770
1665258256326,-22,-36,269,153,-768,-306,3434,2131,-4795
1665258256326,-22,-36,269,153,-768,-306,3434,2131,-4795
1665258256339,8,1,267,210,-810,-257,3434,2131,-4795
1665258256341,8,1,267,210,-810,-257,3434,2131,-4795
1665258256341,8,1,267,183,-778,-225,3434,2131,-4795
1665258256357,8,1,267,183,-778,-225,3434,2131,-4795
1665258256358,5,-2,268,210,-802,-191,3434,2131,-4795
1665258256358,5,-2,268,192,-759,-175,3434,2131,-4795
1665258256373,5,-2,268,192,-759,-175,3434,2131,-4795
1665258256374,5,-7,269,175,-741,-183,3434,2131,-4795
1665258256375,5,-7,269,175,-741,-183,3434,2131,-4795
1665258256391,5,-7,269,161,-759,-239,3434,2131,-4795
1665258256393,5,-7,269,161,-759,-239,3434,2131,-4795
1665258256393,7,-5,272,157,-790,-337,3434,2131,-4795
1665258256411,7,-5,272,157,-790,-337,3434,2131,-4795
1665258256413,7,-5,272,200,-846,-375,3434,2131,-4795
1665258256413,7,-5,272,198,-842,-295,3434,2131,-4795
1665258256413,2,11,266,198,-842,-295,3434,2131,-4795
1665258256440,2,11,266,191,-815,-199,3434,2131,-4795
1665258256442,2,11,266,191,-815,-199,3465,2166,-4786
1665258256442,-19,5,261,195,-761,-145,3465,2166,-4786
1665258256442,-19,5,261,195,-761,-145,3465,2166,-4786
1665258256442,-19,5,261,200,-690,-79,3465,2166,-4786
1665258256458,-19,5,261,200,-690,-79,3465,2166,-4786
1665258256460,5,-3,269,173,-713,-65,3465,2166,-4786
1665258256460,5,-3,269,186,-757,-106,3465,2166,-4786
1665258256460,5,-3,269,186,-757,-106,3465,2166,-4786
1665258256479,2,-4,270,213,-777,-147,3465,2166,-4786
1665258256482,2,-4,270,213,-777,-147,3465,2166,-4786
1665258256482,2,-4,270,198,-800,-159,3465,2166,-4786
1665258256482,2,-4,270,198,-800,-159,3465,2166,-4786
1665258256503,4,-4,269,177,-780,-193,3465,2166,-4786
1665258256505,4,-4,269,177,-766,-227,3465,2166,-4786
1665258256505,4,-4,269,181,-766,-227,3465,2166,-4786
1665258256505,3,1,268,179,-757,-233,3465,2166,-4786
1665258256526,3,1,268,179,-757,-233,3465,2166,-4786
1665258256528,3,1,268,185,-759,-218,3465,2166,-4786
1665258256528,3,1,268,185,-759,-218,3422,2148,-4766
1665258256528,3,3,270,192,-783,-191,3422,2148,-4766
1665258256558,3,3,270,192,-783,-191,3422,2148,-4766
1665258256560,3,3,270,199,-787,-174,3422,2148,-4766
1665258256560,3,3,270,209,-778,-148,3422,2148,-4766
1665258256560,3,3,268,209,-778,-148,3422,2148,-4766
1665258256560,3,3,268,193,-753,-125,3422,2148,-4766
1665258256560,3,3,268,193,-753,-125,3422,2148,-4766
1665258256576,5,-3,268,189,-746,-125,3422,2148,-4766
1665258256578,5,-3,268,189,-746,-125,3422,2148,-4766
1665258256579,5,-3,268,179,-740,-141,3422,2148,-4766
1665258256579,5,-3,268,179,-740,-141,3422,2148,-4766
1665258256595,4,-1,269,198,-760,-161,3422,2148,-4766
1665258256597,4,-1,269,195,-774,-159,3422,2148,-4766
1665258256597,4,-1,269,195,-774,-159,3422,2148,-4766
1665258256622,4,0,270,199,-782,-165,3422,2148,-4766
1665258256625,4,0,270,199,-782,-165,3422,2148,-4766
1665258256625,4,0,270,203,-780,-169,3422,2148,-4766
1665258256625,4,0,270,203,-780,-169,3422,2148,-4766
1665258256625,4,0,268,193,-760,-153,3419,2124,-4811
1665258256645,4,0,268,193,-760,-153,3419,2124,-4811
1665258256647,4,0,268,189,-751,-149,3419,2124,-4811
1665258256648,4,-1,269,185,-753,-145,3419,2124,-4811
1665258256648,4,-1,269,185,-753,-145,3419,2124,-4811
1665258256667,4,-1,269,182,-771,-149,3419,2124,-4811
1665258256669,4,-1,269,182,-771,-149,3419,2124,-4811
1665258256669,5,0,267,168,-788,-138,3419,2124,-4811
1665258256669,5,0,267,168,-788,-138,3419,2124,-4811
1665258256680,5,0,267,145,-780,-137,3419,2124,-4811
1665258256682,5,0,267,145,-779,-140,3419,2124,-4811
1665258256695,3,1,269,149,-779,-140,3419,2124,-4811
1665258256697,3,1,269,162,-768,-134,3419,2124,-4811
1665258256697,3,1,269,162,-768,-134,3419,2124,-4811
1665258256713,4,1,270,179,-766,-136,3419,2124,-4811
1665258256714,4,1,270,179,-766,-136,3419,2124,-4811
1665258256715,4,1,270,170,-762,-127,3419,2124,-4811
1665258256733,4,1,270,170,-762,-127,3419,2124,-4811
1665258256735,4,-3,268,179,-766,-129,3462,2129,-4842
1665258256735,4,-3,268,190,-763,-144,3462,2129,-4842
1665258256735,4,-3,268,190,-763,-144,3462,2129,-4842
1665258256756,5,-2,269,188,-757,-152,3462,2129,-4842
1665258256759,5,-2,269,188,-757,-152,3462,2129,-4842
1665258256759,5,-2,269,201,-761,-162,3462,2129,-4842
1665258256759,5,-2,269,201,-761,-162,3462,2129,-4842
1665258256759,4,-1,268,193,-759,-156,3462,2129,-4842
1665258256772,4,-1,268,193,-759,-156,3462,2129,-4842
1665258256774,4,-1,268,198,-763,-154,3462,2129,-4842
1665258256789,4,-1,268,205,-773,-152,3462,2129,-4842
1665258256791,1,2,267,205,-773,-152,3462,2129,-4842
1665258256791,1,2,267,188,-759,-138,3462,2129,-4842
1665258256805,1,2,267,188,-759,-138,3462,2129,-4842
1665258256806,4,4,267,166,-768,-143,3462,2129,-4842
1665258256806,4,4,267,166,-768,-143,3462,2129,-4842
1665258256827,4,4,267,128,-764,-149,3462,2129,-4842
1665258256829,4,4,267,128,-764,-156,3462,2129,-4842
1665258256829,1,13,267,95,-770,-156,3462,2129,-4842
1665258256830,1,13,267,91,-792,-162,3420,2141,-4788
1665258256830,1,13,267,91,-792,-162,3420,2141,-4788
1665258256850,2,14,269,77,-795,-159,3420,2141,-4788
1665258256852,2,14,269,77,-795,-159,3420,2141,-4788
1665258256852,2,14,269,70,-821,-148,3420,2141,-4788
1665258256852,2,14,269,70,-821,-148,3420,2141,-4788
1665258256870,3,1,271,92,-809,-150,3420,2141,-4788
1665258256872,3,1,271,92,-770,-156,3420,2141,-4788
1665258256872,3,1,271,115,-770,-156,3420,2141,-4788
1665258256889,2,6,269,137,-720,-162,3420,2141,-4788
1665258256890,2,6,269,137,-720,-162,3420,2141,-4788
1665258256890,2,6,269,178,-742,-173,3420,2141,-4788
1665258256891,2,6,269,178,-742,-173,3420,2141,-4788
1665258256907,2,6,268,165,-733,-167,3420,2141,-4788
1665258256909,2,6,268,165,-733,-167,3420,2141,-4788
1665258256909,2,6,268,134,-735,-160,3420,2141,-4788
1665258256929,2,6,268,120,-780,-162,3420,2141,-4788
1665258256931,0,16,263,120,-780,-162,3420,2141,-4788
1665258256931,0,16,263,113,-799,-158,3436,2088,-4756
1665258256931,0,16,263,113,-799,-158,3436,2088,-4756
1665258256951,-4,34,258,147,-796,-167,3436,2088,-4756
1665258256953,-4,34,258,147,-796,-167,3436,2088,-4756
1665258256953,-4,34,258,227,-807,-183,3436,2088,-4756
1665258256953,-4,34,258,227,-807,-183,3436,2088,-4756
1665258256965,2,37,255,303,-876,-170,3436,2088,-4756
1665258256967,2,37,255,333,-959,-121,3436,2088,-4756
1665258256967,2,37,255,333,-959,-121,3436,2088,-4756
1665258256978,-4,19,254,298,-944,-137,3436,2088,-4756
1665258256980,-4,19,254,298,-944,-137,3436,2088,-4756
1665258256997,-4,19,254,240,-733,-178,3436,2088,-4756
1665258256999,-4,19,254,240,-733,-178,3436,2088,-4756
1665258256999,2,11,277,218,-719,-183,3436,2088,-4756
1665258256999,2,11,277,218,-719,-187,3436,2088,-4756
1665258257015,2,11,277,229,-816,-187,3436,2088,-4756
1665258257017,2,5,265,201,-777,-172,3436,2088,-4756
1665258257017,2,5,265,201,-777,-172,3436,2088,-4756
1665258257039,2,5,265,195,-766,-162,3436,2088,-4756
1665258257042,2,5,265,195,-766,-162,3439,2094,-4753
1665258257042,0,18,264,186,-765,-173,3439,2094,-4753
1665258257042,0,18,264,186,-765,-173,3439,2094,-4753
1665258257042,0,18,264,209,-816,-173,3439,2094,-4753
1665258257057,0,18,264,232,-856,-132,3439,2094,-4753
1665258257058,2,12,268,232,-856,-132,3439,2094,-4753
1665258257059,2,12,268,235,-851,-80,3439,2094,-4753
1665258257072,2,12,268,235,-851,-80,3439,2094,-4753
1665258257074,0,5,264,190,-789,-104,3439,2094,-4753
1665258257090,0,5,264,190,-789,-104,3439,2094,-4753
1665258257092,0,5,264,144,-679,-147,3439,2094,-4753
1665258257092,0,5,264,144,-679,-147,3439,2094,-4753
1665258257092,3,13,275,119,-626,-156,3439,2094,-4753
1665258257109,3,13,275,62,-703,-136,3439,2094,-4753
1665258257111,3,13,275,62,-703,-136,3439,2094,-4753
1665258257111,2,8,264,54,-780,-168,3439,2094,-4753
1665258257130,2,8,264,54,-780,-168,3439,2094,-4753
1665258257133,2,8,264,56,-741,-162,3439,2094,-4753
1665258257133,2,8,264,56,-741,-162,3399,2115,-4733
1665258257133,3,12,270,97,-716,-175,3399,2115,-4733
1665258257154,3,12,270,97,-716,-175,3399,2115,-4733
1665258257155,3,12,270,96,-729,-168,3399,2115,-4733
1665258257155,3,12,260,145,-709,-157,3399,2115,-4733
1665258257155,2,5,260,145,-709,-157,3399,2115,-4733
1665258257172,2,5,260,177,-716,-138,3399,2115,-4733
1665258257173,2,5,260,177,-716,-138,3399,2115,-4733
1665258257173,5,-8,270,152,-708,-145,3399,2115,-4733
1665258257173,5,-8,270,152,-708,-145,3399,2115,-4733
1665258257190,5,-8,270,102,-743,-142,3399,2115,-4733
1665258257192,5,-8,270,102,-743,-160,3399,2115,-4733
1665258257192,7,-14,279,54,-777,-160,3399,2115,-4733
1665258257212,7,-14,279,18,-838,-175,3399,2115,-4733
1665258257215,7,-14,279,18,-838,-175,3399,2115,-4733
1665258257216,6,-7,283,6,-746,-152,3399,2115,-4733
1665258257216,6,-7,283,6,-746,-152,3399,2115,-4733
1665258257216,6,-7,283,21,-830,-155,3399,2115,-4733
1665258257244,6,-7,283,21,-830,-155,3399,2115,-4733
1665258257246,7,-2,292,-45,-638,-156,3380,2157,-4717
1665258257246,7,-2,292,5,-784,-157,3380,2157,-4717
1665258257246,7,-2,292,5,-784,-157,3380,2157,-4717
1665258257246,4,13,269,10,-872,-190,3380,2157,-4717
1665258257262,4,13,269,10,-872,-190,3380,2157,-4717
1665258257263,4,13,269,-39,-713,-186,3380,2157,-4717
1665258257263,4,13,269,-39,-713,-186,3380,2157,-4717
1665258257278,0,7,252,107,-867,-173,3380,2157,-4717
1665258257280,0,7,252,107,-867,-173,3380,2157,-4717
1665258257280,0,7,252,193,-761,-188,3380,2157,-4717
1665258257295,0,7,252,280,-715,-165,3380,2157,-4717
1665258257297,6,-11,267,280,-715,-165,3380,2157,-4717
1665258257297,6,-11,267,329,-714,-172,3380,2157,-4717
1665258257297,6,-11,267,329,-714,-172,3380,2157,-4717
1665258257316,8,-27,278,390,-613,-154,3380,2157,-4717
1665258257318,8,-27,278,390,-613,-154,3380,2157,-4717
1665258257318,8,-27,278,341,-665,-155,3380,2157,-4717
1665258257337,8,-27,278,341,-665,-155,3380,2157,-4717
1665258257339,8,-23,285,327,-695,-157,3365,2167,-4742
1665258257340,8,-23,285,320,-738,-173,3365,2167,-4742
1665258257340,8,-23,285,320,-738,-173,3365,2167,-4742
1665258257360,6,-1,274,265,-679,-172,3365,2167,-4742
1665258257362,6,-1,274,265,-679,-172,3365,2167,-4742
1665258257362,6,-1,274,244,-680,-138,3365,2167,-4742
1665258257362,6,-1,274,244,-680,-138,3365,2167,-4742
1665258257362,3,1,268,201,-704,-154,3365,2167,-4742
1665258257376,3,1,268,201,-778,-138,3365,2167,-4742
1665258257378,3,1,268,217,-778,-138,3365,2167,-4742
1665258257396,5,17,268,283,-722,-101,3365,2167,-4742
1665258257398,5,17,268,283,-722,-101,3365,2167,-4742
1665258257398,5,17,268,336,-753,-61,3365,2167,-4742
1665258257398,5,17,268,336,-753,-61,3365,2167,-4742
1665258257417,5,-2,280,351,-713,-157,3365,2167,-4742
1665258257419,5,-2,280,351,-713,-157,3365,2167,-4742
1665258257419,5,-2,280,383,-709,-164,3365,2167,-4742
1665258257419,5,-2,280,412,-659,-188,3365,2167,-4742
1665258257438,5,-11,282,412,-659,-188,3365,2167,-4742
1665258257441,5,-11,282,368,-645,-198,3372,2179,-4717
1665258257442,5,-11,282,368,-645,-198,3372,2179,-4717
1665258257442,8,-22,283,310,-728,-194,3372,2179,-4717
1665258257458,8,-22,283,310,-728,-194,3372,2179,-4717
1665258257459,8,-22,283,312,-895,-207,3372,2179,-4717
1665258257459,8,-22,283,312,-895,-207,3372,2179,-4717
1665258257474,5,-11,268,192,-683,-195,3372,2179,-4717
1665258257476,5,-11,268,188,-761,-184,3372,2179,-4717
1665258257476,5,-11,268,188,-761,-184,3372,2179,-4717
1665258257501,6,-14,262,176,-818,-176,3372,2179,-4717
1665258257504,6,-14,262,176,-818,-176,3372,2179,-4717
1665258257504,6,-14,262,126,-698,-164,3372,2179,-4717
1665258257504,6,-14,262,126,-698,-164,3372,2179,-4717
1665258257504,6,-16,272,120,-828,-175,3372,2179,-4717
1665258257504,6,-16,272,120,-828,-175,3372,2179,-4717
1665258257525,6,-16,272,125,-787,-173,3372,2179,-4717
1665258257527,6,0,278,131,-724,-178,3372,2179,-4717
1665258257527,6,-6,278,131,-724,-178,3372,2179,-4717
1665258257527,6,-6,278,135,-812,-183,3399,2169,-4727
1665258257555,6,-6,278,135,-812,-183,3399,2169,-4727
1665258257556,5,-7,267,207,-850,-161,3399,2169,-4727
1665258257556,5,-7,267,207,-850,-161,3399,2169,-4727
1665258257556,5,-7,267,208,-659,-150,3399,2169,-4727
1665258257556,5,-7,267,208,-740,-32,3399,2169,-4727
1665258257571,3,-24,278,270,-740,-32,3399,2169,-4727
1665258257573,3,-24,278,179,-718,-111,3399,2169,-4727
1665258257573,3,-24,278,179,-718,-111,3399,2169,-4727
1665258257594,7,-16,278,130,-760,-155,3399,2169,-4727
1665258257596,7,-16,278,130,-760,-155,3399,2169,-4727
1665258257596,7,-16,278,123,-790,-160,3399,2169,-4727
1665258257596,7,-16,278,123,-790,-160,3399,2169,-4727
1665258257596,8,-20,281,158,-740,-158,3399,2169,-4727
1665258257621,8,-20,281,173,-688,-169,3399,2169,-4727
1665258257622,8,-20,281,173,-688,-169,3399,2169,-4727
1665258257622,9,-23,275,287,-894,-201,3399,2169,-4727
1665258257622,9,-23,275,287,-894,-201,3399,2169,-4727
1665258257638,9,-23,275,308,-750,-218,3399,2169,-4727
1665258257641,9,-23,275,308,-750,-218,3411,2165,-4739
1665258257641,8,-17,293,344,-715,-193,3411,2165,-4739
1665258257641,8,-17,293,344,-715,-193,3411,2165,-4739
1665258257666,8,-17,293,432,-689,-214,3411,2165,-4739
1665258257670,8,-17,293,539,-750,-222,3411,2165,-4739
1665258257670,6,-15,294,539,-750,-222,3411,2165,-4739
1665258257670,6,-15,294,691,-894,-215,3411,2165,-4739
1665258257670,6,-15,294,691,-894,-215,3411,2165,-4739
1665258257686,7,-17,285,574,-552,-233,3411,2165,-4739
1665258257687,7,-17,285,574,-552,-233,3411,2165,-4739
1665258257687,7,-17,285,582,-678,-216,3411,2165,-4739
1665258257705,7,-17,285,582,-678,-200,3411,2165,-4739
1665258257708,9,-19,287,538,-672,-200,3411,2165,-4739
1665258257708,9,-19,287,606,-915,-223,3411,2165,-4739
1665258257708,9,-19,287,606,-915,-223,3411,2165,-4739
1665258257721,7,-20,281,464,-717,-208,3411,2165,-4739
1665258257724,7,-20,281,464,-717,-208,3411,2165,-4739
1665258257724,7,-20,281,371,-686,-177,3411,2165,-4739
1665258257741,7,-20,281,371,-686,-177,3417,2203,-4777
1665258257743,10,-27,283,278,-677,-170,3417,2203,-4777
1665258257743,10,-27,283,278,-742,-177,3417,2203,-4777
1665258257743,10,-27,283,235,-742,-177,3417,2203,-4777
1665258257763,9,-26,259,290,-977,-180,3417,2203,-4777
1665258257766,9,-26,259,290,-977,-180,3417,2203,-4777
1665258257766,9,-26,259,113,-605,-170,3417,2203,-4777
1665258257766,9,-26,259,113,-605,-170,3417,2203,-4777
1665258257786,5,-5,271,205,-844,-165,3417,2203,-4777
1665258257787,5,-5,271,205,-844,-165,3417,2203,-4777
1665258257787,5,-5,271,219,-810,-169,3417,2203,-4777
1665258257787,5,-5,271,173,-698,-156,3417,2203,-4777
1665258257804,5,-10,275,173,-698,-156,3417,2203,-4777
1665258257806,5,-10,275,182,-744,-150,3417,2203,-4777
1665258257806,5,-10,275,182,-744,-150,3417,2203,-4777
1665258257823,5,-10,276,182,-741,-154,3417,2203,-4777
1665258257825,5,-10,276,182,-741,-154,3417,2203,-4777
1665258257825,5,-10,276,161,-743,-155,3417,2203,-4777
1665258257825,5,-10,276,161,-743,-155,3417,2203,-4772
1665258257844,7,-13,279,124,-751,-152,3454,2192,-4772
1665258257846,7,-13,279,132,-873,-160,3454,2192,-4772
1665258257846,7,-13,279,132,-873,-160,3454,2192,-4772
1665258257867,6,-13,273,103,-897,-163,3454,2192,-4772
1665258257871,6,-13,273,103,-897,-163,3454,2192,-4772
1665258257871,6,-13,273,-19,-716,-152,3454,2192,-4772
1665258257871,6,-13,273,-19,-716,-152,3454,2192,-4772
1665258257871,7,-10,280,1,-812,-142,3454,2192,-4772
1665258257886,7,-10,280,1,-812,-148,3454,2192,-4772
1665258257888,7,-10,280,12,-822,-148,3454,2192,-4772
1665258257888,7,-8,277,42,-837,-149,3454,2192,-4772
1665258257904,5,-8,277,42,-837,-149,3454,2192,-4772
1665258257906,5,-8,277,81,-826,-149,3454,2192,-4772
1665258257906,5,-8,277,81,-826,-149,3454,2192,-4772
1665258257923,6,-6,278,119,-824,-154,3454,2192,-4772
1665258257924,6,-6,278,119,-824,-154,3454,2192,-4772
1665258257924,6,-6,278,157,-850,-153,3454,2192,-4772
1665258257924,6,-6,278,157,-847,-156,3454,2192,-4772
1665258257941,5,-6,274,188,-847,-156,3486,2134,-4743
1665258257943,5,-6,274,213,-832,-167,3486,2134,-4743
1665258257943,5,-6,274,213,-832,-167,3486,2134,-4743
1665258257963,5,-3,274,223,-819,-168,3486,2134,-4743
1665258257966,5,-3,274,223,-819,-168,3486,2134,-4743
1665258257966,5,-3,274,232,-812,-166,3486,2134,-4743
1665258257966,5,-3,274,232,-812,-166,3486,2134,-4743
1665258257986,5,-7,273,227,-821,-170,3486,2134,-4743
1665258257988,5,-7,273,228,-833,-177,3486,2134,-4743
1665258257988,5,-7,273,228,-833,-177,3486,2134,-4743
1665258257988,6,-5,274,228,-838,-173,3486,2134,-4743
1665258257988,6,-5,274,228,-838,-173,3486,2134,-4743
1665258258005,6,-5,274,229,-857,-176,3486,2134,-4743
1665258258006,6,-5,274,229,-857,-176,3486,2134,-4743
1665258258006,5,-5,272,223,-852,-177,3486,2134,-4743
1665258258023,5,-5,272,223,-852,-177,3486,2134,-4743
1665258258025,5,-5,272,213,-836,-179,3486,2134,-4743
1665258258025,5,-5,272,205,-820,-182,3486,2134,-4743
1665258258044,4,-5,272,205,-820,-182,3486,2122,-4759
1665258258046,4,-5,272,189,-795,-178,3479,2122,-4759
1665258258046,4,-5,272,189,-795,-178,3479,2122,-4759
1665258258046,4,-6,271,189,-787,-181,3479,2122,-4759
1665258258066,4,-6,271,189,-787,-181,3479,2122,-4759
1665258258069,4,-6,271,182,-772,-180,3479,2122,-4759
1665258258069,4,-6,271,182,-772,-178,3479,2122,-4759
1665258258069,3,-4,272,183,-779,-178,3479,2122,-4759
1665258258086,3,-4,272,189,-785,-170,3479,2122,-4759
1665258258088,3,-4,272,189,-785,-170,3479,2122,-4759
1665258258088,4,-3,271,193,-777,-163,3479,2122,-4759
1665258258088,4,-3,271,193,-777,-163,3479,2122,-4759
1665258258105,4,-3,271,200,-783,-157,3479,2122,-4759
1665258258107,4,-3,271,200,-783,-157,3479,2122,-4759
1665258258107,6,-5,270,196,-784,-154,3479,2122,-4759
1665258258123,6,-5,270,186,-762,-170,3479,2122,-4759
1665258258124,6,-5,270,186,-762,-170,3479,2122,-4759
1665258258124,4,-3,271,182,-743,-180,3479,2122,-4759
1665258258125,4,-3,271,182,-743,-180,3479,2122,-4759
1665258258145,4,-3,271,190,-736,-167,3465,2134,-4774
1665258258148,4,-3,271,190,-736,-167,3465,2134,-4774
1665258258148,5,-4,271,194,-734,-163,3465,2134,-4774
1665258258148,5,-4,271,194,-734,-163,3465,2134,-4774
1665258258175,5,-4,271,190,-746,-160,3465,2134,-4774
1665258258177,5,-4,271,196,-772,-160,3465,2134,-4774
1665258258178,4,-5,274,196,-772,-160,3465,2134,-4774
1665258258178,4,-5,274,192,-787,-158,3465,2134,-4774
1665258258178,4,-5,274,192,-787,-158,3465,2134,-4774
1665258258205,5,-5,271,198,-800,-162,3465,2134,-4774
1665258258207,5,-5,271,198,-800,-162,3465,2134,-4774
1665258258207,5,-5,271,202,-812,-163,3465,2134,-4774
1665258258207,5,-5,271,202,-812,-163,3465,2134,-4774
1665258258207,4,-4,271,202,-829,-159,3465,2134,-4774
1665258258208,4,-4,271,207,-836,-160,3465,2134,-4774
1665258258225,4,-4,271,207,-836,-160,3465,2134,-4774
1665258258226,4,-4,270,197,-812,-161,3465,2134,-4774
1665258258226,4,-4,270,197,-812,-161,3465,2134,-4774
1665258258243,4,-4,270,196,-787,-168,3491,2127,-4819
1665258258244,4,-4,270,196,-787,-168,3491,2127,-4819
1665258258244,4,-4,272,193,-765,-170,3491,2127,-4819
1665258258245,4,-4,272,193,-765,-171,3491,2127,-4819
1665258258264,4,-4,272,195,-765,-171,3491,2127,-4819
1665258258266,4,-5,270,198,-759,-171,3491,2127,-4819
1665258258266,4,-5,270,198,-759,-171,3491,2127,-4819
1665258258266,4,-5,270,197,-744,-172,3491,2127,-4819
1665258258292,4,-5,270,197,-744,-172,3491,2127,-4819
1665258258294,3,-4,271,196,-735,-174,3491,2127,-4819
1665258258294,3,-4,271,196,-735,-174,3491,2127,-4819
1665258258294,3,-4,271,195,-735,-173,3491,2127,-4819
1665258258294,3,-4,271,205,-745,-166,3491,2127,-4819
1665258258308,4,-4,273,205,-745,-166,3491,2127,-4819
1665258258309,4,-4,273,206,-755,-164,3491,2127,-4819
1665258258309,4,-4,273,206,-755,-164,3491,2127,-4819
1665258258324,5,-4,271,204,-773,-168,3491,2127,-4819
1665258258325,5,-4,271,204,-773,-168,3491,2127,-4819
1665258258325,5,-4,271,208,-781,-176,3491,2127,-4819
1665258258341,5,-4,271,208,-781,-176,3491,2099,-4768
1665258258342,5,-4,272,212,-786,-178,3491,2099,-4768
1665258258342,5,-4,272,247,-846,-188,3491,2099,-4768
1665258258361,5,-4,272,247,-846,-188,3491,2099,-4768
1665258258363,4,1,246,371,-1136,-280,3491,2099,-4768
1665258258363,4,1,246,371,-1136,-280,3491,2099,-4768
1665258258363,4,1,246,242,-768,-243,3491,2099,-4768
1665258258387,4,1,246,242,-768,-243,3491,2099,-4768
1665258258390,3,-4,270,265,-803,-218,3491,2099,-4768
1665258258390,3,-4,270,265,-803,-218,3491,2099,-4768
1665258258390,3,-4,270,305,-870,-255,3491,2099,-4768
1665258258390,3,-4,265,324,-889,-275,3491,2099,-4768
1665258258404,2,0,265,324,-889,-275,3491,2099,-4768
1665258258406,2,0,265,299,-842,-233,3491,2099,-4768
1665258258421,2,0,265,299,-842,-233,3491,2099,-4768
1665258258422,3,-1,269,286,-933,-215,3491,2099,-4768
1665258258422,3,-1,269,286,-933,-215,3491,2099,-4768
1665258258440,3,-1,269,275,-941,-201,3491,2099,-4768
1665258258441,3,-1,269,275,-939,-210,3502,2108,-4862
1665258258441,3,-2,268,281,-939,-210,3502,2108,-4862
1665258258441,3,-2,268,295,-947,-237,3502,2108,-4862
1665258258457,3,-2,268,295,-947,-237,3502,2108,-4862
1665258258459,3,-1,268,287,-957,-220,3502,2108,-4862
1665258258459,3,-1,268,287,-957,-220,3502,2108,-4862
1665258258477,3,-1,268,304,-1011,-223,3502,2108,-4862
1665258258479,3,-1,268,304,-1011,-223,3502,2108,-4862
1665258258480,4,-1,262,320,-1015,-231,3502,2108,-4862
1665258258480,4,-1,262,339,-898,-250,3502,2108,-4862
1665258258507,4,-1,262,339,-898,-250,3502,2108,-4862
1665258258508,2,-4,266,283,-923,-230,3502,2108,-4862
1665258258508,2,-4,266,283,-923,-230,3502,2108,-4862
1665258258508,2,-4,266,283,-940,-215,3502,2108,-4862
1665258258508,2,-4,266,283,-940,-215,3502,2108,-4862
1665258258523,2,2,266,259,-740,-190,3502,2108,-4862
1665258258524,2,2,266,259,-740,-190,3502,2108,-4862
1665258258524,2,2,266,225,-735,-158,3502,2108,-4862
1665258258542,2,2,266,213,-698,-156,3502,2108,-4862
1665258258543,2,-2,266,213,-698,-156,3468,2107,-4910
1665258258543,2,-2,266,250,-740,-160,3468,2107,-4910
1665258258543,2,-2,266,250,-740,-160,3468,2107,-4910
1665258258563,3,-3,259,304,-744,-167,3468,2107,-4910
1665258258565,3,-3,259,304,-744,-167,3468,2107,-4910
1665258258565,3,-3,259,343,-703,-175,3468,2107,-4910
1665258258565,3,-3,259,343,-703,-175,3468,2107,-4910
1665258258589,2,2,249,371,-697,-197,3468,2107,-4910
1665258258591,2,2,249,317,-590,-201,3468,2107,-4910
1665258258591,2,2,249,317,-590,-201,3468,2107,-4910
1665258258591,3,4,269,270,-579,-203,3468,2107,-4910
1665258258592,3,4,269,270,-579,-203,3468,2107,-4910
1665258258617,3,4,269,275,-656,-197,3468,2107,-4910
1665258258619,3,4,269,275,-656,-197,3468,2107,-4910
1665258258619,2,-3,267,197,-798,-155,3468,2107,-4910
1665258258619,2,-3,267,197,-801,-151,3468,2107,-4910
1665258258619,2,-3,267,181,-801,-151,3468,2107,-4910
1665258258636,3,0,267,192,-798,-138,3468,2107,-4910
1665258258638,3,0,267,192,-798,-138,3494,2152,-4967
1665258258638,3,0,267,209,-842,-145,3494,2152,-4967
1665258258659,3,0,267,209,-842,-145,3494,2152,-4967
1665258258661,3,-3,266,172,-752,-157,3494,2152,-4967
1665258258661,3,-3,266,172,-752,-157,3494,2152,-4967
1665258258661,3,-3,266,190,-737,-171,3494,2152,-4967
1665258258684,3,-3,266,198,-739,-167,3494,2152,-4967
1665258258687,2,0,268,198,-739,-167,3494,2152,-4967
1665258258687,2,0,268,190,-805,-157,3494,2152,-4967
1665258258687,2,0,268,190,-805,-157,3494,2152,-4967
1665258258687,4,0,263,180,-831,-149,3494,2152,-4967
1665258258712,4,0,263,180,-831,-149,3494,2152,-4967
1665258258716,4,0,263,191,-808,-158,3494,2152,-4967
1665258258716,4,0,263,191,-808,-158,3494,2152,-4967
1665258258716,3,-1,266,178,-720,-152,3494,2152,-4967
1665258258716,3,-1,266,182,-716,-154,3494,2152,-4967
1665258258729,3,-1,266,182,-716,-154,3494,2152,-4967
1665258258731,2,0,268,187,-776,-152,3494,2152,-4967
1665258258731,2,0,268,187,-776,-152,3494,2152,-4967
1665258258743,2,0,268,188,-814,-144,3499,2105,-4929
1665258258745,2,0,268,188,-814,-144,3499,2105,-4929
1665258258745,3,-1,263,193,-811,-145,3499,2105,-4929
1665258258757,3,-1,263,193,-811,-146,3499,2105,-4929
1665258258759,3,-1,263,190,-767,-146,3499,2105,-4929
1665258258782,3,-2,267,188,-746,-154,3499,2105,-4929
1665258258783,2,-2,267,188,-746,-154,3499,2105,-4929
1665258258783,2,-2,267,187,-760,-159,3499,2105,-4929
1665258258783,2,-2,267,187,-760,-159,3499,2105,-4929
1665258258783,2,-1,265,186,-782,-159,3499,2105,-4929
1665258258806,2,-1,265,186,-782,-159,3499,2105,-4929
1665258258809,2,-1,265,187,-792,-158,3499,2105,-4929
1665258258809,2,-1,265,187,-783,-156,3499,2105,-4929
1665258258809,2,0,264,189,-783,-156,3499,2105,-4929
1665258258810,2,0,264,191,-768,-155,3499,2105,-4929
1665258258824,2,0,264,191,-768,-155,3499,2105,-4929
1665258258825,3,-2,266,188,-761,-152,3499,2105,-4929
1665258258842,3,-2,266,188,-761,-152,3499,2105,-4929
1665258258844,3,-2,266,187,-775,-149,3454,2104,-4908
1665258258844,3,-2,266,187,-775,-149,3454,2104,-4908
1665258258844,2,-1,266,185,-782,-146,3454,2104,-4908
1665258258862,2,-1,266,185,-785,-148,3454,2104,-4908
1665258258864,2,-1,266,185,-785,-148,3454,2104,-4908
1665258258864,2,-2,266,190,-784,-155,3454,2104,-4908
1665258258864,2,-2,266,190,-784,-155,3454,2104,-4908
1665258258890,2,-2,266,189,-777,-156,3454,2104,-4908
1665258258892,2,-2,266,189,-777,-156,3454,2104,-4908
1665258258892,2,-1,265,188,-781,-154,3454,2104,-4908
1665258258892,2,-1,265,188,-781,-154,3454,2104,-4908
1665258258892,2,-1,265,188,-786,-153,3454,2104,-4908
1665258258904,2,-1,265,188,-783,-154,3454,2104,-4908
1665258258906,3,-1,264,188,-783,-154,3454,2104,-4908
1665258258923,3,-1,264,188,-772,-156,3454,2104,-4908
1665258258927,3,-1,264,188,-772,-156,3454,2104,-4908
1665258258927,2,-2,265,183,-762,-158,3454,2104,-4908
1665258258927,2,-2,265,183,-762,-158,3454,2104,-4908
1665258258946,2,-2,265,186,-764,-164,3454,2104,-4908
1665258258950,2,-2,265,186,-764,-165,3485,2094,-4964
1665258258950,3,-1,266,183,-762,-165,3485,2094,-4964
1665258258950,3,-1,266,189,-771,-169,3485,2094,-4964
1665258258964,3,-1,266,189,-771,-169,3485,2094,-4964
1665258258966,2,-1,266,186,-771,-162,3485,2094,-4964
1665258258967,2,-1,266,186,-771,-162,3485,2094,-4964
1665258258980,2,-1,266,186,-777,-161,3485,2094,-4964
1665258258983,2,-1,266,186,-777,-161,3485,2094,-4964
1665258258983,3,-1,265,187,-775,-159,3485,2094,-4964
1665258259004,3,-1,265,182,-770,-154,3485,2094,-4964
1665258259006,3,-1,265,182,-770,-154,3485,2094,-4964
1665258259006,1,-2,265,187,-780,-161,3485,2094,-4964
1665258259006,1,-2,265,187,-780,-161,3485,2094,-4964
1665258259006,1,-2,265,186,-782,-160,3485,2094,-4964
1665258259023,1,-2,265,186,-782,-160,3485,2094,-4964
1665258259025,3,-1,266,187,-779,-158,3485,2094,-4964
1665258259025,3,-1,266,187,-779,-158,3485,2094,-4964
1665258259047,3,-1,266,186,-773,-159,3485,2094,-4964
1665258259050,3,-1,266,185,-769,-158,3510,2097,-4922
1665258259050,3,-1,266,185,-769,-158,3510,2097,-4922
1665258259050,3,-1,266,187,-771,-159,3510,2097,-4922
1665258259050,3,-1,266,187,-771,-159,3510,2097,-4922
1665258259073,3,0,266,186,-773,-160,3510,2097,-4922
1665258259075,3,0,266,186,-773,-160,3510,2097,-4922
1665258259075,3,0,266,189,-776,-158,3510,2097,-4922
1665258259075,3,0,266,189,-776,-158,3510,2097,-4922
1665258259075,3,-1,266,186,-773,-155,3510,2097,-4922
1665258259089,3,-1,266,188,-777,-153,3510,2097,-4922
1665258259090,3,-1,266,188,-777,-153,3510,2097,-4922
1665258259106,3,0,265,188,-775,-151,3510,2097,-4922
1665258259108,3,0,265,188,-775,-151,3510,2097,-4922
1665258259108,3,0,265,188,-774,-150,3510,2097,-4922
1665258259108,3,0,265,188,-774,-150,3510,2097,-4922
1665258259126,3,-1,265,190,-772,-145,3510,2097,-4922
1665258259128,3,-1,265,190,-772,-143,3510,2097,-4922
1665258259128,3,-1,265,186,-769,-143,3510,2097,-4922
1665258259151,3,-2,266,188,-769,-147,3510,2097,-4922
1665258259153,3,-2,266,188,-769,-147,3473,2118,-4894
1665258259153,3,-2,266,186,-770,-154,3473,2118,-4894
1665258259153,3,-2,266,186,-770,-154,3473,2118,-4894
1665258259154,4,-1,266,185,-772,-160,3473,2118,-4894
1665258259170,4,-1,266,185,-772,-160,3473,2118,-4894
1665258259171,4,-1,266,188,-779,-165,3473,2118,-4894
1665258259171,4,-1,266,185,-776,-163,3473,2118,-4894
1665258259187,3,-1,266,185,-776,-163,3473,2118,-4894
1665258259189,3,-1,266,189,-777,-164,3473,2118,-4894
1665258259189,3,-1,266,189,-777,-164,3473,2118,-4894
1665258259206,2,-1,266,186,-771,-160,3473,2118,-4894
1665258259208,2,-1,266,186,-771,-160,3473,2118,-4894
1665258259208,2,-1,266,190,-775,-163,3473,2118,-4894
1665258259208,2,-1,266,190,-775,-163,3473,2118,-4894
1665258259226,2,-2,265,185,-769,-158,3473,2118,-4894
1665258259228,2,-2,265,187,-773,-159,3473,2118,-4894
1665258259228,2,-2,265,187,-773,-159,3473,2118,-4894
1665258259228,4,-1,266,184,-771,-159,3473,2118,-4894
1665258259251,4,-1,266,184,-771,-159,3464,2147,-4974
1665258259253,4,-1,266,185,-772,-158,3464,2147,-4974
1665258259253,4,-1,266,185,-772,-158,3464,2147,-4974
1665258259253,2,-1,267,189,-775,-158,3464,2147,-4974
1665258259270,2,-1,267,189,-775,-158,3464,2147,-4974
1665258259271,2,-1,267,182,-773,-156,3464,2147,-4974
1665258259271,2,-1,266,187,-779,-158,3464,2147,-4974
1665258259271,2,-1,266,187,-779,-158,3464,2147,-4974
1665258259288,2,-1,266,187,-778,-159,3464,2147,-4974
1665258259290,2,-1,266,187,-778,-159,3464,2147,-4974
1665258259290,4,0,265,182,-771,-154,3464,2147,-4974
1665258259306,4,0,265,182,-771,-154,3464,2147,-4974
1665258259307,4,0,265,190,-776,-160,3464,2147,-4974
1665258259307,4,0,265,190,-776,-156,3464,2147,-4974
1665258259329,3,-1,265,181,-770,-156,3464,2147,-4974
1665258259333,3,-1,265,189,-775,-158,3464,2147,-4974
1665258259333,3,-1,265,189,-775,-158,3464,2147,-4974
1665258259333,4,-1,266,184,-771,-156,3464,2147,-4974
1665258259333,4,-1,266,184,-771,-156,3464,2147,-4974
1665258259357,4,-1,266,183,-769,-155,3445,2139,-4938
1665258259359,4,-1,266,183,-769,-155,3445,2139,-4938
1665258259360,2,-2,266,184,-768,-156,3445,2139,-4938
1665258259360,2,-2,266,186,-768,-155,3445,2139,-4938
1665258259360,2,-2,266,186,-768,-155,3445,2139,-4938
1665258259374,2,-2,267,188,-773,-159,3445,2139,-4938
1665258259376,2,-2,267,188,-773,-159,3445,2139,-4938
1665258259376,2,-2,267,184,-771,-159,3445,2139,-4938
1665258259392,2,-2,267,184,-771,-159,3445,2139,-4938
1665258259393,2,-2,265,184,-773,-161,3445,2139,-4938
1665258259393,2,-2,265,184,-773,-161,3445,2139,-4938
1665258259409,2,-2,265,184,-771,-161,3445,2139,-4938
1665258259410,2,-2,265,185,-774,-163,3445,2139,-4938
1665258259410,2,-1,266,185,-774,-163,3445,2139,-4938
1665258259429,2,-1,266,183,-773,-159,3445,2139,-4938
1665258259431,2,-1,266,183,-773,-159,3445,2139,-4938
1665258259431,3,-2,265,185,-774,-158,3445,2139,-4938
1665258259431,3,-2,265,185,-774,-158,3445,2139,-4938
1665258259456,3,-2,265,187,-777,-156,3463,2121,-4897
1665258259458,3,-2,265,187,-777,-156,3463,2121,-4897
1665258259458,3,-1,265,187,-776,-158,3463,2121,-4897
1665258259458,3,-1,265,187,-771,-157,3463,2121,-4897
1665258259458,3,-1,265,187,-771,-157,3463,2121,-4897
1665258259472,2,-1,265,190,-772,-155,3463,2121,-4897
1665258259473,2,-1,265,190,-772,-155,3463,2121,-4897
1665258259473,2,-1,265,187,-771,-152,3463,2121,-4897
1665258259488,2,-1,265,187,-771,-152,3463,2121,-4897
1665258259489,3,-1,266,188,-776,-154,3463,2121,-4897
1665258259489,3,-1,266,188,-774,-154,3463,2121,-4897
1665258259509,3,-1,266,186,-774,-154,3463,2121,-4897
1665258259511,3,-1,266,187,-772,-158,3463,2121,-4897
1665258259511,3,-1,266,187,-772,-158,3463,2121,-4897
1665258259511,3,-1,266,185,-770,-159,3463,2121,-4897
1665258259532,3,-1,266,185,-770,-159,3463,2121,-4897
1665258259534,2,-1,266,185,-774,-160,3463,2121,-4897
1665258259534,2,-1,266,185,-774,-160,3463,2121,-4897
1665258259534,2,-1,266,186,-776,-162,3463,2121,-4897
1665258259561,2,-1,266,183,-772,-161,3469,2131,-4930
1665258259562,3,0,266,183,-772,-161,3469,2131,-4930
1665258259562,3,0,266,186,-773,-161,3469,2131,-4930
1665258259562,3,0,266,186,-773,-161,3469,2131,-4930
1665258259563,2,-1,266,181,-770,-161,3469,2131,-4930
1665258259585,2,-1,266,181,-770,-161,3469,2131,-4930
1665258259587,2,-1,266,186,-779,-165,3469,2131,-4930
1665258259587,2,-1,266,186,-779,-165,3469,2131,-4930
1665258259587,3,-1,267,186,-777,-167,3469,2131,-4930
1665258259587,3,-1,267,186,-775,-169,3469,2131,-4930
1665258259606,3,-1,267,186,-775,-169,3469,2131,-4930
1665258259607,2,-1,265,190,-776,-167,3469,2131,-4930
1665258259607,2,-1,265,190,-776,-167,3469,2131,-4930
1665258259635,2,-1,265,185,-771,-159,3469,2131,-4930
1665258259637,2,-1,265,185,-771,-159,3469,2131,-4930
1665258259637,2,0,267,188,-775,-156,3469,2131,-4930
1665258259637,2,0,267,188,-775,-156,3469,2131,-4930
1665258259637,2,0,267,184,-772,-153,3469,2131,-4930
1665258259637,2,0,266,186,-773,-152,3463,2114,-4933
1665258259658,2,-1,266,186,-773,-152,3463,2114,-4933
1665258259660,2,-1,266,186,-774,-154,3463,2114,-4933
1665258259660,2,-1,266,186,-774,-154,3463,2114,-4933
1665258259660,3,-1,266,183,-770,-154,3463,2114,-4933
1665258259685,3,-1,266,183,-770,-154,3463,2114,-4933
1665258259686,3,-1,266,188,-774,-156,3463,2114,-4933
1665258259686,3,-1,266,188,-771,-153,3463,2114,-4933
1665258259686,3,-1,265,185,-771,-153,3463,2114,-4933
1665258259686,3,-1,265,189,-775,-155,3463,2114,-4933
1665258259704,3,-1,265,189,-775,-155,3463,2114,-4933
1665258259706,2,-1,266,175,-762,-150,3463,2114,-4933
1665258259706,2,-1,266,175,-762,-150,3463,2114,-4933
1665258259725,2,-1,266,177,-766,-151,3463,2114,-4933
1665258259727,2,-1,266,177,-766,-151,3463,2114,-4933
1665258259727,3,-1,266,179,-767,-155,3463,2114,-4933
1665258259727,3,-1,266,182,-763,-157,3463,2114,-4933
1665258259748,3,-1,266,182,-763,-157,3463,2114,-4933
1665258259750,2,-1,267,192,-777,-162,3463,2114,-4933
1665258259750,2,-1,267,192,-777,-162,3466,2123,-4922
1665258259750,2,-1,267,187,-776,-156,3466,2123,-4922
1665258259750,2,-1,267,187,-776,-156,3466,2123,-4922
1665258259773,3,0,267,197,-785,-151,3466,2123,-4922
1665258259775,3,0,267,197,-785,-151,3466,2123,-4922
1665258259775,3,0,267,198,-781,-144,3466,2123,-4922
1665258259775,3,0,267,177,-768,-140,3466,2123,-4922
1665258259789,4,-2,265,177,-768,-140,3466,2123,-4922
1665258259791,4,-2,265,173,-757,-147,3466,2123,-4922
1665258259791,4,-2,265,173,-757,-147,3466,2123,-4922
1665258259804,2,-2,265,171,-747,-153,3466,2123,-4922
1665258259806,2,-2,265,171,-747,-153,3466,2123,-4922
1665258259806,2,-2,265,179,-740,-159,3466,2123,-4922
1665258259832,2,-2,265,179,-740,-169,3466,2123,-4922
1665258259834,2,0,268,193,-777,-169,3466,2123,-4922
1665258259834,2,0,268,195,-821,-170,3466,2123,-4922
1665258259834,2,0,268,195,-821,-170,3466,2123,-4922
1665258259834,3,-2,268,197,-802,-167,3466,2123,-4922
1665258259856,3,-2,268,197,-802,-167,3490,2106,-4904
1665258259858,3,-2,268,208,-807,-165,3490,2106,-4904
1665258259858,3,-2,268,208,-807,-165,3490,2106,-4904
1665258259858,3,-1,267,192,-785,-159,3490,2106,-4904
1665258259874,3,-1,267,192,-781,-162,3490,2106,-4904
1665258259875,3,-1,267,188,-781,-162,3490,2106,-4904
1665258259875,3,-1,266,182,-763,-160,3490,2106,-4904
1665258259876,3,-1,266,182,-763,-160,3490,2106,-4904
1665258259890,3,-1,266,183,-765,-160,3490,2106,-4904
1665258259891,3,-1,266,183,-765,-160,3490,2106,-4904
1665258259911,3,-2,267,184,-768,-156,3490,2106,-4904
1665258259913,3,-2,267,184,-768,-156,3490,2106,-4904
1665258259914,3,-2,267,193,-793,-156,3490,2106,-4904
1665258259914,3,-2,267,190,-795,-156,3490,2106,-4904
1665258259914,2,-1,266,190,-795,-156,3490,2106,-4904
1665258259938,2,-1,266,193,-795,-155,3490,2106,-4904
1665258259942,2,-1,266,193,-795,-155,3490,2106,-4904
1665258259942,2,0,268,201,-782,-151,3490,2106,-4904
1665258259942,2,0,268,201,-782,-151,3490,2106,-4904
1665258259942,2,0,268,213,-802,-147,3462,2111,-4953
1665258259954,2,0,268,213,-802,-147,3462,2111,-4953
1665258259955,2,-1,267,195,-809,-134,3462,2111,-4953
1665258259972,2,-1,267,203,-836,-134,3462,2111,-4953
1665258259973,2,-1,267,203,-836,-134,3462,2111,-4953
1665258259973,3,-2,265,210,-814,-140,3462,2111,-4953
1665258259973,3,-2,265,210,-814,-140,3462,2111,-4953
1665258259989,3,-2,265,208,-794,-142,3462,2111,-4953
1665258259991,3,-2,265,208,-794,-142,3462,2111,-4953
1665258259991,2,-2,265,216,-797,-147,3462,2111,-4953
1665258260010,2,-2,265,216,-797,-149,3462,2111,-4953
1665258260011,2,-2,265,214,-802,-149,3462,2111,-4953
1665258260011,2,-1,267,218,-795,-153,3462,2111,-4953
1665258260011,4,-1,267,218,-795,-153,3462,2111,-4953
1665258260030,4,-1,267,236,-798,-154,3462,2111,-4953
1665258260034,4,-1,267,236,-798,-154,3462,2111,-4953
1665258260034,3,-1,264,244,-794,-153,3462,2111,-4953
1665258260034,3,-1,264,244,-794,-153,3462,2111,-4953
1665258260052,3,-1,264,229,-804,-147,3475,2110,-4984
1665258260054,3,-1,264,205,-788,-137,3475,2110,-4984
1665258260054,3,-3,267,205,-788,-137,3475,2110,-4984
1665258260054,3,-3,267,250,-768,-135,3475,2110,-4984
1665258260071,3,-3,267,250,-768,-135,3475,2110,-4984
1665258260073,2,-5,252,267,-856,-112,3475,2110,-4984
1665258260073,2,-5,252,267,-856,-112,3475,2110,-4984
1665258260098,2,-5,252,167,-740,-124,3475,2110,-4984
1665258260100,2,-5,252,167,-740,-124,3475,2110,-4984
1665258260100,3,-3,269,139,-662,-132,3475,2110,-4984
1665258260100,3,-3,269,174,-739,-138,3475,2110,-4984
1665258260100,3,-3,269,174,-739,-138,3475,2110,-4984
1665258260115,3,-3,270,137,-674,-126,3475,2110,-4984
1665258260118,3,-3,270,137,-674,-126,3475,2110,-4984
1665258260118,3,-3,270,166,-802,-130,3475,2110,-4984
1665258260139,3,-3,270,166,-802,-130,3475,2110,-4984
1665258260141,3,-1,264,149,-789,-131,3475,2110,-4984
1665258260141,3,-1,264,149,-789,-131,3475,2110,-4984
1665258260141,3,-1,264,89,-702,-116,3475,2110,-4984
1665258260141,3,-1,265,131,-657,-147,3439,2191,-4912
1665258260155,4,-2,265,131,-657,-147,3439,2191,-4912
1665258260156,4,-2,265,132,-660,-146,3439,2191,-4912
1665258260178,4,-2,265,132,-660,-146,3439,2191,-4912
1665258260181,3,-3,270,133,-678,-148,3439,2191,-4912
1665258260181,3,-3,270,133,-678,-148,3439,2191,-4912
1665258260181,3,-3,270,180,-779,-162,3439,2191,-4912
1665258260182,3,-3,270,180,-779,-170,3439,2191,-4912
1665258260205,3,-3,266,199,-804,-170,3439,2191,-4912
1665258260207,3,-3,266,214,-817,-176,3439,2191,-4912
1665258260207,3,-3,266,214,-817,-176,3439,2191,-4912
1665258260207,3,-2,266,218,-832,-176,3439,2191,-4912
1665258260208,3,-2,266,218,-832,-176,3439,2191,-4912
1665258260221,3,-2,266,202,-806,-170,3439,2191,-4912
1665258260222,3,-2,266,202,-806,-170,3439,2191,-4912
1665258260239,3,-3,265,197,-788,-164,3439,2191,-4912
1665258260241,3,-3,265,189,-758,-162,3439,2191,-4912
1665258260241,3,-3,265,189,-758,-162,3439,2191,-4912
1665258260241,3,-4,267,234,-805,-175,3423,2159,-4925
1665258260257,3,-4,267,234,-805,-175,3423,2159,-4925
1665258260258,3,-4,267,290,-839,-193,3423,2159,-4925
1665258260258,3,-4,267,290,-839,-193,3423,2159,-4925
1665258260275,2,-2,269,261,-958,-167,3423,2159,-4925
1665258260277,2,-2,269,261,-958,-167,3423,2159,-4925
1665258260278,2,-2,269,286,-1039,-180,3423,2159,-4925
1665258260278,2,-2,269,252,-883,-180,3423,2159,-4925
1665258260303,3,-3,263,252,-883,-180,3423,2159,-4925
1665258260307,3,-3,263,248,-834,-177,3423,2159,-4925
1665258260307,3,-3,263,248,-834,-177,3423,2159,-4925
1665258260307,2,-1,266,223,-732,-175,3423,2159,-4925
1665258260308,2,-1,266,223,-732,-175,3423,2159,-4925
1665258260322,2,-1,266,195,-747,-160,3423,2159,-4925
1665258260323,2,-1,266,195,-747,-160,3423,2159,-4925
1665258260323,2,-2,263,188,-781,-153,3423,2159,-4925
1665258260338,2,-2,263,150,-797,-140,3423,2159,-4925
1665258260340,2,-2,263,150,-797,-140,3423,2159,-4925
1665258260340,1,-3,262,159,-791,-148,3423,2159,-4925
1665258260357,1,-3,262,159,-791,-148,3473,2136,-4916
1665258260358,1,-3,262,178,-745,-158,3473,2136,-4916
1665258260358,1,-3,262,178,-745,-158,3473,2136,-4916
1665258260382,3,-3,265,184,-736,-159,3473,2136,-4916
1665258260383,3,-3,265,184,-736,-164,3473,2136,-4916
1665258260383,3,-3,265,194,-766,-164,3473,2136,-4916
1665258260383,2,-2,263,203,-814,-166,3473,2136,-4916
1665258260383,2,-2,263,203,-814,-166,3473,2136,-4916
1665258260406,2,-2,263,192,-805,-161,3473,2136,-4916
1665258260408,2,-2,263,192,-805,-161,3473,2136,-4916
1665258260408,2,-2,263,196,-797,-161,3473,2136,-4916
1665258260408,2,-2,263,196,-797,-161,3473,2136,-4916
1665258260408,2,-2,263,183,-766,-154,3473,2136,-4916
1665258260423,2,-2,263,173,-765,-152,3473,2136,-4916
1665258260424,2,-2,264,173,-765,-152,3473,2136,-4916
1665258260425,2,-2,264,179,-772,-157,3473,2136,-4916
1665258260441,2,-2,264,179,-772,-157,3473,2136,-4916
1665258260443,3,-2,264,182,-765,-157,3473,2136,-4916
1665258260443,3,-2,264,182,-765,-157,3489,2132,-4929
1665258260458,3,-2,264,191,-777,-160,3489,2132,-4929
1665258260460,3,-2,264,191,-777,-160,3489,2132,-4929
1665258260460,3,-3,264,196,-789,-157,3489,2132,-4929
1665258260479,3,-3,264,192,-788,-154,3489,2132,-4929
1665258260481,3,-3,264,192,-788,-154,3489,2132,-4929
1665258260481,2,-2,264,189,-773,-152,3489,2132,-4929
1665258260481,2,-2,264,189,-773,-152,3489,2132,-4929
1665258260504,2,-2,264,184,-763,-152,3489,2132,-4929
1665258260507,2,-2,264,184,-763,-152,3489,2132,-4929
1665258260507,2,-4,263,184,-773,-155,3489,2132,-4929
1665258260507,2,-4,263,184,-773,-155,3489,2132,-4929
1665258260507,2,-4,263,182,-777,-157,3489,2132,-4929
1665258260523,2,-4,264,186,-781,-159,3489,2132,-4929
1665258260524,3,-2,264,186,-781,-159,3489,2132,-4929
1665258260524,3,-2,264,189,-779,-161,3489,2132,-4929
1665258260539,3,-2,264,189,-779,-161,3489,2132,-4929
1665258260540,3,-3,263,188,-777,-162,3489,2132,-4929
1665258260540,3,-3,263,188,-777,-162,3489,2132,-4929
1665258260559,3,-3,263,188,-779,-163,3459,2151,-4963
1665258260561,3,-3,263,188,-778,-161,3459,2151,-4963
1665258260561,2,-2,264,186,-778,-161,3459,2151,-4963
1665258260561,2,-2,264,185,-778,-159,3459,2151,-4963
1665258260586,2,-2,264,185,-778,-159,3459,2151,-4963
1665258260587,3,-2,263,186,-778,-160,3459,2151,-4963
1665258260588,3,-2,263,186,-778,-160,3459,2151,-4963
1665258260588,3,-2,263,184,-777,-159,3459,2151,-4963
1665258260588,3,-2,263,184,-777,-159,3459,2151,-4963
1665258260611,2,-2,263,189,-779,-162,3459,2151,-4963
1665258260613,2,-2,263,182,-768,-159,3459,2151,-4963
1665258260613,2,-2,263,182,-768,-159,3459,2151,-4963
1665258260613,3,-3,265,186,-775,-163,3459,2151,-4963
1665258260637,3,-3,265,186,-775,-163,3459,2151,-4963
1665258260639,3,-3,265,183,-775,-160,3459,2151,-4963
1665258260639,3,-3,265,183,-775,-160,3459,2151,-4963
1665258260640,3,-3,263,185,-779,-160,3459,2151,-4963
1665258260640,3,-3,263,185,-779,-160,3459,2151,-4963
1665258260656,3,-3,263,184,-779,-160,3453,2077,-4995
1665258260657,3,-3,263,182,-774,-158,3453,2077,-4995
1665258260658,4,-2,263,182,-774,-158,3453,2077,-4995
1665258260658,4,-2,263,187,-777,-159,3453,2077,-4995
1665258260679,4,-2,263,187,-777,-159,3453,2077,-4995
1665258260681,2,-2,263,185,-775,-160,3453,2077,-4995
1665258260681,2,-2,263,185,-775,-160,3453,2077,-4995
1665258260681,2,-2,263,187,-776,-162,3453,2077,-4995
1665258260705,2,-2,263,187,-776,-162,3453,2077,-4995
1665258260708,2,-3,264,185,-773,-159,3453,2077,-4995
1665258260708,2,-3,264,185,-774,-160,3453,2077,-4995
1665258260708,2,-3,264,185,-774,-160,3453,2077,-4995
1665258260708,3,-2,262,187,-778,-162,3453,2077,-4995
1665258260734,3,-2,262,187,-778,-162,3453,2077,-4995
1665258260736,3,-2,262,186,-777,-160,3453,2077,-4995
1665258260736,3,-2,262,186,-777,-160,3453,2077,-4995
1665258260737,2,-2,264,190,-781,-162,3453,2077,-4995
1665258260737,2,-2,264,190,-774,-158,3453,2077,-4995
1665258260754,2,-2,264,185,-774,-158,3453,2077,-4995
1665258260756,2,-3,263,189,-777,-158,3437,2136,-4963
1665258260756,2,-3,263,189,-777,-158,3437,2136,-4963
1665258260772,2,-3,263,189,-777,-156,3437,2136,-4963
1665258260774,2,-3,263,189,-777,-156,3437,2136,-4963
1665258260774,3,-2,262,187,-776,-153,3437,2136,-4963
1665258260774,3,-2,262,187,-776,-153,3437,2136,-4963
1665258260792,3,-2,262,189,-778,-157,3437,2136,-4963
1665258260793,3,-2,262,184,-773,-158,3437,2136,-4963
1665258260793,3,-4,263,184,-773,-158,3437,2136,-4963
1665258260812,3,-4,263,184,-774,-164,3437,2136,-4963
1665258260815,3,-4,263,184,-774,-164,3437,2136,-4963
1665258260815,2,-3,263,185,-775,-163,3437,2136,-4963
1665258260815,2,-3,263,185,-775,-163,3437,2136,-4963
1665258260832,2,-3,263,186,-776,-165,3437,2136,-4963
1665258260834,2,-3,263,186,-776,-165,3437,2136,-4963
1665258260834,2,-2,263,185,-778,-164,3437,2136,-4963
1665258260834,2,-2,263,186,-777,-163,3437,2136,-4963
1665258260846,2,-2,263,186,-777,-163,3437,2136,-4963
1665258260848,2,-3,263,185,-777,-163,3460,2117,-4968
1665258260862,2,-3,263,185,-777,-163,3460,2117,-4968
1665258260864,2,-3,263,182,-770,-161,3460,2117,-4968
1665258260864,2,-3,263,182,-770,-161,3460,2117,-4968
1665258260886,3,-2,264,185,-773,-162,3460,2117,-4968
1665258260888,3,-2,264,185,-773,-162,3460,2117,-4968
1665258260888,3,-2,264,186,-774,-162,3460,2117,-4968
1665258260888,3,-2,263,185,-772,-163,3460,2117,-4968
1665258260888,1,-2,263,185,-772,-163,3460,2117,-4968
1665258260909,1,-2,263,188,-776,-165,3460,2117,-4968
1665258260911,1,-2,263,188,-776,-165,3460,2117,-4968
1665258260911,3,-3,263,182,-771,-161,3460,2117,-4968
1665258260911,3,-3,263,182,-771,-161,3460,2117,-4968
1665258260929,3,-3,263,188,-776,-163,3460,2117,-4968
1665258260930,3,-3,263,188,-770,-161,3460,2117,-4968
1665258260930,2,-2,263,184,-770,-161,3460,2117,-4968
1665258260930,2,-2,263,187,-774,-161,3460,2117,-4968
1665258260945,2,-2,263,187,-774,-161,3460,2117,-4968
1665258260947,2,-3,264,188,-774,-163,3460,2117,-4968
1665258260947,2,-3,264,188,-774,-163,3499,2135,-4925
1665258260962,2,-3,264,188,-774,-164,3499,2135,-4925
1665258260963,2,-3,264,188,-774,-164,3499,2135,-4925
1665258260964,3,-3,264,188,-775,-167,3499,2135,-4925
1665258260983,3,-3,264,186,-773,-167,3499,2135,-4925
1665258260985,3,-3,264,186,-773,-167,3499,2135,-4925
1665258260985,1,-3,263,192,-779,-169,3499,2135,-4925
1665258260985,1,-3,263,192,-779,-169,3499,2135,-4925
1665258261007,1,-3,263,193,-777,-165,3499,2135,-4925
1665258261009,1,-3,263,193,-777,-165,3499,2135,-4925
1665258261009,3,-3,263,195,-778,-165,3499,2135,-4925
1665258261009,3,-3,263,195,-778,-165,3499,2135,-4925
1665258261024,3,-3,263,197,-776,-166,3499,2135,-4925
1665258261025,3,-3,263,197,-768,-165,3499,2135,-4925
1665258261025,2,-3,265,197,-768,-165,3499,2135,-4925
1665258261040,2,-3,265,219,-774,-174,3499,2135,-4925
1665258261041,2,-3,265,219,-774,-174,3499,2135,-4925
1665258261041,3,-3,264,215,-760,-171,3499,2135,-4925
1665258261056,3,-3,264,215,-760,-171,3438,2168,-4959
1665258261057,3,-3,264,221,-772,-173,3438,2168,-4959
1665258261057,3,-3,264,221,-772,-170,3438,2168,-4959
1665258261075,2,-1,263,205,-769,-170,3438,2168,-4959
1665258261076,2,-1,263,189,-771,-163,3438,2168,-4959
1665258261076,2,-1,263,189,-771,-163,3438,2168,-4959
1665258261078,2,-3,263,187,-775,-162,3438,2168,-4959
1665258261095,2,-3,263,187,-775,-162,3438,2168,-4959
1665258261097,2,-3,263,188,-773,-162,3438,2168,-4959
1665258261097,2,-3,263,188,-773,-162,3438,2168,-4959
1665258261117,1,-3,263,186,-775,-162,3438,2168,-4959
1665258261118,1,-3,263,186,-780,-164,3438,2168,-4959
1665258261118,1,-3,263,186,-780,-164,3438,2168,-4959
1665258261118,2,-2,264,184,-775,-163,3438,2168,-4959
1665258261130,2,-2,264,184,-775,-163,3438,2168,-4959
1665258261132,2,-2,264,185,-773,-164,3438,2168,-4959
1665258261132,2,-2,264,185,-773,-164,3438,2168,-4959
1665258261145,3,-2,264,182,-767,-165,3438,2168,-4959
1665258261147,3,-2,264,182,-767,-165,3438,2168,-4959
1665258261172,3,-2,264,183,-772,-166,3438,2145,-4929
1665258261174,3,-2,264,179,-771,-164,3438,2145,-4929
1665258261174,3,-2,265,179,-771,-164,3438,2145,-4929
1665258261174,3,-2,265,182,-779,-166,3438,2145,-4929
1665258261174,3,-2,265,182,-779,-166,3438,2145,-4929
1665258261194,2,-2,263,184,-776,-167,3438,2145,-4929
1665258261196,2,-2,263,184,-776,-167,3438,2145,-4929
1665258261196,2,-2,263,183,-774,-165,3438,2145,-4929
1665258261196,2,-2,263,183,-774,-165,3438,2145,-4929
1665258261214,2,-2,263,186,-775,-166,3438,2145,-4929
1665258261217,2,-2,263,179,-770,-165,3438,2145,-4929
1665258261217,2,-2,263,179,-770,-165,3438,2145,-4929
1665258261217,2,-3,263,183,-773,-167,3438,2145,-4929
1665258261229,2,-3,263,183,-773,-167,3438,2145,-4929
1665258261231,2,-3,263,162,-774,-154,3438,2145,-4929
1665258261231,2,-3,263,162,-774,-154,3438,2145,-4929
1665258261244,3,-3,264,135,-786,-136,3438,2145,-4929
1665258261246,3,-3,264,135,-786,-149,3438,2145,-4929
1665258261246,3,-3,264,156,-793,-149,3455,2150,-4948
1665258261260,3,-3,265,137,-763,-146,3455,2150,-4948
1665258261262,3,-3,265,137,-763,-146,3455,2150,-4948
1665258261262,3,-3,265,163,-789,-155,3455,2150,-4948
1665258261280,3,-3,265,163,-789,-155,3455,2150,-4948
1665258261283,3,-5,265,161,-774,-151,3455,2150,-4948
1665258261283,3,-5,265,161,-774,-151,3455,2150,-4948
1665258261307,3,-5,265,162,-785,-156,3455,2150,-4948
1665258261310,3,-5,265,159,-768,-161,3455,2150,-4948
1665258261310,2,-1,263,159,-768,-161,3455,2150,-4948
1665258261310,2,-1,263,163,-777,-163,3455,2150,-4948
1665258261310,2,-1,263,163,-777,-163,3455,2150,-4948
1665258261325,2,-4,263,168,-770,-163,3455,2150,-4948
1665258261326,2,-4,263,168,-770,-163,3455,2150,-4948
1665258261326,2,-4,263,178,-770,-160,3455,2150,-4948
1665258261341,2,-4,263,178,-770,-160,3455,2150,-4948
1665258261342,3,-5,265,192,-768,-158,3455,2150,-4948
1665258261342,3,-5,265,197,-764,-156,3455,2150,-4948
1665258261357,3,-5,265,197,-764,-156,3455,2150,-4948
1665258261360,4,-3,264,197,-761,-160,3402,2151,-4974
1665258261360,4,-3,264,197,-761,-160,3402,2151,-4974
1665258261360,4,-3,264,197,-763,-163,3402,2151,-4974
1665258261377,4,-3,264,197,-763,-163,3402,2151,-4974
1665258261380,2,-1,264,190,-777,-162,3402,2151,-4974
1665258261380,2,-1,264,190,-777,-162,3402,2151,-4974
1665258261404,2,-1,264,193,-776,-161,3402,2151,-4974
1665258261407,2,-1,264,180,-757,-159,3402,2151,-4974
1665258261407,3,-2,264,180,-757,-159,3402,2151,-4974
1665258261407,3,-2,264,182,-766,-162,3402,2151,-4974
1665258261407,3,-2,264,182,-766,-162,3402,2151,-4974
1665258261421,2,-1,265,174,-761,-160,3402,2151,-4974
1665258261422,2,-1,265,174,-761,-160,3402,2151,-4974
1665258261422,2,-1,265,162,-782,-157,3402,2151,-4974
1665258261439,2,-1,265,162,-788,-159,3402,2151,-4974
1665258261441,2,0,264,155,-788,-159,3402,2151,-4974
1665258261441,2,0,264,161,-778,-159,3402,2151,-4974
1665258261456,2,0,264,161,-778,-159,3402,2151,-4974
1665258261457,1,0,264,169,-765,-162,3433,2162,-4910
1665258261458,1,0,264,169,-765,-162,3433,2162,-4910
1665258261477,1,0,264,172,-763,-162,3433,2162,-4910
1665258261478,1,0,264,172,-763,-162,3433,2162,-4910
1665258261479,3,-4,264,169,-773,-161,3433,2162,-4910
1665258261479,3,-4,264,168,-780,-159,3433,2162,-4910
1665258261500,3,-4,264,168,-780,-159,3433,2162,-4910
1665258261503,2,-2,262,159,-780,-157,3433,2162,-4910
1665258261503,2,-2,262,159,-780,-157,3433,2162,-4910
1665258261503,2,-2,262,150,-788,-157,3433,2162,-4910
1665258261503,2,-2,262,150,-788,-157,3433,2162,-4910
1665258261519,3,-3,264,142,-777,-157,3433,2162,-4910
1665258261520,3,-3,264,142,-777,-157,3433,2162,-4910
1665258261520,3,-3,264,141,-778,-156,3433,2162,-4910
1665258261539,3,-3,264,136,-770,-156,3433,2162,-4910
1665258261541,3,-5,264,136,-770,-156,3433,2162,-4910
1665258261541,3,-5,264,140,-780,-157,3433,2162,-4910
1665258261541,3,-5,264,140,-780,-157,3433,2162,-4910
1665258261556,3,-2,264,144,-776,-157,3433,2162,-4910
1665258261557,3,-2,264,144,-776,-157,3435,2167,-4868
1665258261557,3,-2,264,145,-787,-156,3435,2167,-4868
1665258261575,3,-2,264,145,-787,-156,3435,2167,-4868
1665258261577,3,-3,263,142,-779,-158,3435,2167,-4868
1665258261577,3,-3,263,132,-775,-155,3435,2167,-4868
1665258261578,3,-3,263,132,-775,-155,3435,2167,-4868
1665258261604,3,-5,265,134,-777,-157,3435,2167,-4868
1665258261605,3,-5,265,134,-777,-157,3435,2167,-4868
1665258261605,3,-5,265,137,-780,-154,3435,2167,-4868
1665258261605,3,-5,265,137,-780,-154,3435,2167,-4868
1665258261606,3,-2,263,147,-781,-156,3435,2167,-4868
1665258261629,3,-2,263,147,-776,-160,3435,2167,-4868
1665258261631,3,-2,263,157,-776,-160,3435,2167,-4868
1665258261631,2,0,264,155,-771,-160,3435,2167,-4868
1665258261631,2,0,264,155,-771,-160,3435,2167,-4868
1665258261655,2,0,264,156,-779,-161,3435,2167,-4868
1665258261657,2,0,264,156,-779,-161,3435,2167,-4868
1665258261657,2,-2,264,152,-788,-158,3435,2167,-4868
1665258261657,2,-2,264,152,-788,-158,3430,2197,-4895
1665258261657,2,-2,264,149,-784,-159,3430,2197,-4895
1665258261673,2,-2,264,142,-780,-159,3430,2197,-4895
1665258261675,2,-1,263,142,-780,-159,3430,2197,-4895
1665258261675,2,-1,263,142,-781,-159,3430,2197,-4895
1665258261675,2,-1,263,142,-781,-159,3430,2197,-4895
1665258261694,2,-1,264,149,-769,-158,3430,2197,-4895
1665258261696,2,-1,264,149,-769,-158,3430,2197,-4895
1665258261696,2,-1,264,156,-774,-161,3430,2197,-4895
1665258261697,2,-1,264,156,-774,-161,3430,2197,-4895
1665258261719,2,-1,264,152,-783,-161,3430,2197,-4895
1665258261720,2,-1,264,147,-775,-159,3430,2197,-4895
1665258261720,2,-1,264,147,-775,-159,3430,2197,-4895
1665258261720,3,-4,265,155,-774,-160,3430,2197,-4895
1665258261746,3,-4,265,155,-774,-160,3430,2197,-4895
1665258261749,3,-4,265,163,-765,-161,3430,2197,-4895
1665258261749,3,-4,265,163,-765,-161,3430,2197,-4895
1665258261749,2,-2,264,174,-766,-163,3430,2197,-4895
1665258261749,2,-2,264,174,-766,-163,3430,2197,-4895
1665258261763,2,-2,264,184,-764,-165,3431,2175,-4886
1665258261766,2,-2,264,183,-767,-163,3431,2175,-4886
1665258261766,3,-1,264,183,-767,-163,3431,2175,-4886
1665258261780,3,-1,264,186,-776,-165,3431,2175,-4886
1665258261782,3,-1,264,186,-776,-165,3431,2175,-4886
1665258261782,2,0,262,178,-781,-168,3431,2175,-4886
1665258261797,2,0,262,178,-781,-168,3431,2175,-4886
1665258261799,2,0,262,173,-775,-167,3431,2175,-4886
1665258261799,2,0,262,173,-763,-163,3431,2175,-4886
1665258261827,3,-5,265,175,-763,-163,3431,2175,-4886
1665258261830,3,-5,265,170,-764,-160,3431,2175,-4886
1665258261831,3,-5,265,170,-764,-160,3431,2175,-4886
1665258261831,4,-7,267,171,-761,-159,3431,2175,-4886
1665258261831,4,-7,267,171,-761,-159,3431,2175,-4886
1665258261831,4,-7,267,168,-762,-160,3431,2175,-4886
1665258261851,4,-7,267,168,-762,-160,3431,2175,-4886
1665258261854,2,-3,265,168,-773,-167,3431,2175,-4886
1665258261854,2,-3,265,160,-770,-163,3431,2175,-4886
1665258261854,2,-3,265,160,-770,-163,3446,2190,-4891
1665258261874,4,-5,265,162,-779,-163,3446,2190,-4891
1665258261877,4,-5,265,162,-779,-163,3446,2190,-4891
1665258261877,4,-5,265,162,-774,-162,3446,2190,-4891
1665258261877,4,-5,265,162,-774,-162,3446,2190,-4891
1665258261877,2,-2,264,162,-774,-162,3446,2190,-4891
1665258261891,2,-2,264,162,-774,-162,3446,2190,-4891
1665258261892,2,-2,264,168,-767,-163,3446,2190,-4891
1665258261906,2,-2,264,162,-758,-160,3446,2190,-4891
1665258261908,3,-3,265,162,-758,-160,3446,2190,-4891
1665258261908,3,-3,265,158,-762,-162,3446,2190,-4891
1665258261924,3,-3,265,158,-762,-162,3446,2190,-4891
1665258261926,3,-5,266,162,-767,-163,3446,2190,-4891
1665258261926,3,-5,266,162,-767,-163,3446,2190,-4891
1665258261926,3,-5,266,159,-767,-164,3446,2190,-4891
1665258261943,3,-5,266,159,-767,-163,3446,2190,-4891
1665258261944,4,-8,267,157,-762,-163,3446,2190,-4891
1665258261944,4,-8,267,150,-777,-166,3446,2190,-4891
1665258261965,4,-8,267,150,-777,-166,3446,2190,-4635
1665258261967,3,-5,265,149,-765,-161,3432,2183,-4862
1665258261967,3,-5,265,149,-765,-161,3432,2183,-4862
1665258261967,3,-5,265,143,-754,-159,3432,2183,-4862
1665258261986,3,-5,265,143,-754,-159,3432,2183,-4862
1665258261988,2,-2,265,168,-761,-165,3432,2183,-4862
1665258261988,2,-2,265,168,-773,-166,3432,2183,-4862
1665258261988,2,-2,265,181,-773,-166,3432,2183,-4862
1665258262004,2,-1,262,186,-761,-167,3432,2183,-4862
1665258262005,2,-1,262,186,-761,-167,3432,2183,-4862
1665258262005,2,-1,262,191,-745,-169,3432,2183,-4862
1665258262022,2,-1,262,191,-745,-169,3432,2183,-4862
1665258262024,1,0,266,206,-726,-169,3432,2183,-4862
1665258262024,1,0,266,206,-726,-169,3432,2183,-4862
1665258262024,1,0,266,216,-740,-172,3432,2183,-4862
1665258262043,1,0,266,218,-744,-172,3432,2183,-4862
1665258262045,3,-1,264,218,-744,-172,3432,2183,-4862
1665258262045,3,-1,264,221,-750,-172,3432,2183,-4862
1665258262045,3,-1,264,221,-750,-172,3432,2183,-4862
1665258262066,1,0,264,213,-755,-173,3430,2171,-4866
1665258262068,1,0,264,213,-755,-173,3430,2171,-4866
1665258262068,1,0,264,201,-751,-172,3430,2171,-4866
1665258262068,1,0,264,201,-751,-172,3430,2171,-4866
1665258262091,3,-1,266,208,-734,-171,3430,2171,-4866
1665258262094,3,-1,266,213,-720,-169,3430,2171,-4866
1665258262094,3,-1,266,213,-720,-169,3430,2171,-4866
1665258262095,2,1,264,223,-715,-169,3430,2171,-4866
1665258262095,2,1,264,223,-715,-169,3430,2171,-4866
1665258262113,2,1,264,221,-718,-171,3430,2171,-4866
1665258262116,2,1,264,221,-718,-171,3430,2171,-4866
1665258262116,3,-1,266,221,-735,-173,3430,2171,-4866
1665258262116,3,-1,266,221,-735,-174,3430,2171,-4866
1665258262132,3,-1,266,231,-757,-174,3430,2171,-4866
1665258262134,3,-2,265,216,-752,-168,3430,2171,-4866
1665258262134,3,-2,265,216,-752,-168,3430,2171,-4866
1665258262157,3,-2,265,214,-757,-174,3430,2171,-4866
1665258262159,3,-2,265,214,-757,-174,3430,2171,-4866
1665258262159,4,-5,267,192,-756,-166,3430,2171,-4874
1665258262159,4,-5,267,192,-756,-166,3431,2193,-4874
1665258262160,4,-5,267,180,-754,-167,3431,2193,-4874
1665258262182,4,-5,267,178,-759,-166,3431,2193,-4874
1665258262183,3,-2,265,178,-759,-166,3431,2193,-4874
1665258262183,3,-2,265,180,-745,-164,3431,2193,-4874
1665258262184,3,-2,265,180,-745,-164,3431,2193,-4874
1665258262195,3,-2,267,184,-736,-168,3431,2193,-4874
1665258262197,3,-2,267,184,-736,-168,3431,2193,-4874
1665258262197,3,-2,267,190,-752,-168,3431,2193,-4874
1665258262212,3,-2,267,190,-752,-168,3431,2193,-4874
1665258262214,4,-5,266,205,-744,-174,3431,2193,-4874
1665258262214,4,-5,266,206,-743,-172,3431,2193,-4874
1665258262233,4,-5,266,206,-743,-172,3431,2193,-4874
1665258262235,3,-3,267,209,-751,-171,3431,2193,-4874
1665258262235,3,-3,267,209,-751,-171,3431,2193,-4874
1665258262235,3,-3,267,208,-752,-173,3431,2193,-4874
1665258262256,3,-3,267,208,-752,-173,3431,2193,-4874
1665258262259,5,-6,269,198,-745,-167,3431,2193,-4874
1665258262259,5,-6,269,198,-745,-167,3402,2203,-4874
1665258262259,5,-6,269,203,-746,-166,3402,2203,-4874
1665258262274,5,-6,267,208,-741,-169,3402,2203,-4874
1665258262275,3,-5,267,208,-741,-169,3402,2203,-4874
1665258262275,3,-5,267,187,-719,-162,3402,2203,-4874
1665258262290,3,-5,267,187,-719,-162,3402,2203,-4874
1665258262293,4,-5,269,159,-707,-153,3402,2203,-4874
1665258262293,4,-5,269,159,-707,-153,3402,2203,-4874
1665258262313,4,-5,269,160,-718,-152,3402,2203,-4874
1665258262314,4,-5,269,160,-718,-154,3402,2203,-4874
1665258262314,3,-4,268,156,-703,-154,3402,2203,-4874
1665258262314,3,-4,268,175,-720,-166,3402,2203,-4874
1665258262335,3,-4,268,175,-720,-166,3402,2203,-4874
1665258262337,5,-7,271,182,-737,-166,3402,2203,-4874
1665258262337,5,-7,271,182,-737,-166,3402,2203,-4874
1665258262337,5,-7,271,176,-745,-172,3402,2203,-4874
1665258262360,5,-7,271,176,-745,-172,3402,2203,-4874
1665258262362,3,-6,268,182,-772,-175,3402,2203,-4874
1665258262362,3,-6,268,164,-765,-171,3402,2232,-4852
1665258262362,3,-6,268,164,-765,-171,3364,2232,-4852
1665258262362,5,-10,272,156,-768,-163,3364,2232,-4852
1665258262376,5,-10,272,156,-768,-163,3364,2232,-4852
1665258262377,5,-10,272,153,-773,-156,3364,2232,-4852
1665258262377,5,-10,272,153,-773,-156,3364,2232,-4852
1665258262393,4,-4,267,164,-745,-151,3364,2232,-4852
1665258262394,4,-4,267,164,-745,-151,3364,2232,-4852
1665258262394,4,-4,267,173,-728,-153,3364,2232,-4852
1665258262412,4,-4,267,181,-737,-160,3364,2232,-4852
1665258262414,3,-3,269,181,-737,-160,3364,2232,-4852
1665258262414,3,-3,269,184,-753,-168,3364,2232,-4852
1665258262434,3,-3,269,184,-753,-168,3364,2232,-4852
1665258262436,2,-2,268,177,-764,-171,3364,2232,-4852
1665258262436,2,-2,268,177,-764,-171,3364,2232,-4852
1665258262436,2,-2,268,176,-770,-172,3364,2232,-4852
1665258262436,2,-2,268,176,-770,-172,3364,2232,-4852
1665258262459,2,-3,269,175,-773,-173,3364,2232,-4852
1665258262460,2,-3,269,184,-749,-174,3364,2232,-4852
1665258262460,2,-3,269,184,-749,-174,3401,2232,-4804
1665258262460,3,-2,269,178,-741,-166,3401,2232,-4804
1665258262474,3,-2,269,178,-741,-166,3401,2232,-4804
1665258262476,3,-2,269,175,-750,-151,3401,2232,-4804
1665258262476,3,-2,269,175,-750,-151,3401,2232,-4804
1665258262491,2,-1,270,168,-750,-157,3401,2232,-4804
1665258262493,2,-1,270,168,-769,-160,3401,2232,-4804
1665258262493,2,-1,270,164,-769,-160,3401,2232,-4804
1665258262516,3,0,268,161,-764,-165,3401,2232,-4804
1665258262520,3,0,268,161,-764,-165,3401,2232,-4804
1665258262520,3,0,268,165,-765,-162,3401,2232,-4804
1665258262521,3,0,268,165,-765,-162,3401,2232,-4804
1665258262521,3,-3,270,164,-761,-160,3401,2232,-4804
1665258262544,3,-3,270,164,-761,-160,3401,2232,-4804
1665258262546,3,-3,270,159,-762,-148,3401,2232,-4804
1665258262547,3,-3,270,159,-764,-122,3401,2232,-4804
1665258262547,4,-4,270,159,-764,-122,3401,2232,-4804
1665258262547,4,-4,270,169,-751,-137,3401,2232,-4804
1665258262568,4,-4,270,169,-751,-137,3401,2227,-4805
1665258262570,3,-4,270,164,-753,-157,3398,2227,-4805
1665258262570,3,-4,270,164,-753,-157,3398,2227,-4805
1665258262570,3,-4,270,165,-761,-134,3398,2227,-4805
1665258262586,3,-4,270,165,-761,-134,3398,2227,-4805
1665258262588,4,-5,270,174,-763,-135,3398,2227,-4805
1665258262588,4,-5,270,176,-763,-165,3398,2227,-4805
1665258262607,4,-5,270,176,-763,-165,3398,2227,-4805
1665258262609,4,-6,271,174,-755,-160,3398,2227,-4805
1665258262609,4,-6,271,174,-755,-160,3398,2227,-4805
1665258262609,4,-6,271,171,-766,-156,3398,2227,-4805
1665258262634,4,-6,271,171,-766,-156,3398,2227,-4805
1665258262637,4,-6,271,172,-763,-149,3398,2227,-4805
1665258262637,4,-6,271,172,-763,-149,3398,2227,-4805
1665258262637,4,-6,271,181,-762,-146,3398,2227,-4805
1665258262637,4,-6,269,169,-757,-159,3398,2227,-4805
1665258262660,3,-4,269,169,-757,-159,3398,2227,-4805
1665258262663,3,-4,269,163,-764,-160,3398,2227,-4805
1665258262663,3,-4,269,163,-764,-160,3398,2227,-4805
1665258262663,4,-5,270,176,-750,-158,3382,2206,-4793
1665258262663,4,-5,270,176,-750,-158,3382,2206,-4793
1665258262687,4,-5,270,178,-715,-148,3382,2206,-4793
1665258262689,4,-5,270,178,-720,-143,3382,2206,-4793
1665258262689,5,-8,272,195,-720,-143,3382,2206,-4793
1665258262689,5,-8,272,213,-746,-161,3382,2206,-4793
1665258262689,5,-8,272,213,-746,-161,3382,2206,-4793
1665258262705,4,-5,270,225,-758,-165,3382,2206,-4793
1665258262707,4,-5,270,225,-758,-165,3382,2206,-4793
1665258262707,4,-5,270,229,-748,-173,3382,2206,-4793
1665258262726,4,-5,270,229,-748,-173,3382,2206,-4793
1665258262728,5,-3,270,212,-752,-171,3382,2206,-4793
1665258262728,5,-3,270,203,-747,-160,3382,2206,-4793
1665258262728,5,-3,270,203,-747,-160,3382,2206,-4793
1665258262750,3,-2,272,196,-728,-166,3382,2206,-4793
1665258262753,3,-2,272,196,-728,-166,3382,2206,-4793
1665258262753,3,-2,272,204,-738,-166,3382,2206,-4793
1665258262753,3,-2,272,204,-738,-166,3382,2206,-4793
1665258262753,4,-4,271,207,-754,-163,3376,2203,-4821
1665258262774,4,-4,271,207,-754,-163,3376,2203,-4821
1665258262776,4,-4,271,195,-747,-159,3376,2203,-4821
1665258262776,4,-4,271,181,-753,-149,3376,2203,-4821
1665258262776,4,-7,271,181,-753,-149,3376,2203,-4821
1665258262800,4,-7,271,182,-743,-151,3376,2203,-4821
1665258262802,4,-7,271,182,-743,-151,3376,2203,-4821
1665258262802,4,-5,273,188,-734,-160,3376,2203,-4821
1665258262802,4,-5,273,188,-734,-160,3376,2203,-4821
1665258262802,4,-5,273,192,-744,-162,3376,2203,-4821
1665258262813,4,-5,273,192,-744,-162,3376,2203,-4821
1665258262815,3,-4,271,197,-754,-163,3376,2203,-4821
1665258262829,3,-4,271,188,-761,-164,3376,2203,-4821
1665258262831,3,-4,271,188,-761,-164,3376,2203,-4821
1665258262831,3,-6,272,190,-762,-171,3376,2203,-4821
1665258262848,3,-6,272,190,-762,-171,3376,2203,-4821
1665258262850,3,-6,272,189,-751,-176,3376,2203,-4821
1665258262850,3,-6,272,189,-751,-176,3376,2203,-4821
1665258262850,4,-4,272,183,-778,-172,3376,2203,-4821
1665258262865,4,-4,272,183,-777,-175,3352,2178,-4769
1665258262867,4,-4,272,185,-777,-175,3352,2178,-4769
1665258262868,5,-4,272,171,-762,-171,3352,2178,-4769
1665258262888,5,-4,272,171,-762,-171,3352,2178,-4769
1665258262891,5,-4,272,185,-776,-176,3352,2178,-4769
1665258262891,5,-4,272,185,-776,-176,3352,2178,-4769
1665258262891,5,-4,273,169,-759,-173,3352,2178,-4769
1665258262905,5,-4,273,169,-759,-173,3352,2178,-4769
1665258262907,5,-4,273,174,-772,-172,3352,2178,-4769
1665258262907,5,-4,273,170,-773,-174,3352,2178,-4769
1665258262923,4,-3,272,170,-773,-174,3352,2178,-4769
1665258262925,4,-3,272,171,-766,-173,3352,2178,-4769
1665258262925,4,-3,272,171,-766,-173,3352,2178,-4769
1665258262941,4,-5,271,186,-770,-177,3352,2178,-4769
1665258262943,4,-5,271,186,-770,-177,3352,2178,-4769
1665258262943,4,-5,271,191,-762,-175,3352,2178,-4769
1665258262943,4,-5,271,191,-762,-175,3352,2178,-4769
1665258262962,3,-5,272,210,-765,-182,3352,2178,-4769
1665258262964,3,-5,272,202,-765,-172,3391,2192,-4772
1665258262964,3,-5,272,202,-765,-172,3391,2192,-4772
1665258262964,4,-7,272,207,-766,-175,3391,2192,-4772
1665258262982,4,-7,272,207,-766,-175,3391,2192,-4772
1665258262985,4,-7,272,213,-767,-176,3391,2192,-4772
1665258262985,4,-7,272,213,-767,-176,3391,2192,-4772
1665258262997,4,-4,271,215,-760,-177,3391,2192,-4772
1665258262999,4,-4,271,215,-760,-179,3391,2192,-4772
1665258262999,4,-4,271,225,-751,-179,3391,2192,-4772
1665258263010,4,-4,273,222,-752,-176,3391,2192,-4772
1665258263012,4,-4,273,222,-752,-176,3391,2192,-4772
1665258263036,4,-4,273,228,-761,-181,3391,2192,-4772
1665258263037,4,-4,273,228,-761,-181,3391,2192,-4772
1665258263037,3,-3,273,228,-761,-181,3391,2192,-4772
1665258263037,3,-3,273,228,-761,-181,3391,2192,-4772
1665258263037,3,-3,273,228,-769,-181,3391,2192,-4772
1665258263058,3,-3,273,228,-765,-179,3391,2192,-4772
1665258263060,3,-2,273,218,-765,-179,3391,2192,-4772
1665258263060,3,-2,273,212,-770,-179,3391,2192,-4772
1665258263060,3,-2,273,212,-770,-179,3360,2199,-4794
1665258263078,4,-8,273,203,-756,-178,3360,2199,-4794
1665258263080,4,-8,273,203,-756,-178,3360,2199,-4794
1665258263080,4,-8,273,209,-747,-176,3360,2199,-4794
1665258263080,4,-8,273,209,-747,-176,3360,2199,-4794
1665258263093,4,-10,274,203,-765,-177,3360,2199,-4794
1665258263095,4,-10,274,191,-758,-174,3360,2199,-4794
1665258263095,4,-10,274,191,-758,-174,3360,2199,-4794
1665258263108,5,-8,273,183,-767,-170,3360,2199,-4794
1665258263110,5,-8,273,183,-767,-170,3360,2199,-4794
1665258263128,5,-8,273,190,-761,-172,3360,2199,-4794
1665258263130,5,-8,273,190,-761,-172,3360,2199,-4794
1665258263130,4,-5,273,181,-760,-171,3360,2199,-4794
1665258263130,4,-5,273,181,-760,-171,3360,2199,-4794
1665258263155,4,-5,273,183,-773,-175,3360,2199,-4794
1665258263158,4,-5,273,170,-763,-172,3360,2199,-4794
1665258263158,4,-5,273,170,-763,-172,3360,2199,-4794
1665258263158,4,-5,273,171,-782,-177,3360,2199,-4794
1665258263158,4,-5,273,171,-782,-177,3350,2216,-4838
1665258263170,4,-4,272,161,-770,-176,3350,2216,-4838
1665258263171,4,-4,272,161,-770,-176,3350,2216,-4838
1665258263171,4,-4,272,162,-774,-177,3350,2216,-4838
1665258263188,4,-4,272,162,-774,-176,3350,2216,-4838
1665258263190,4,-8,272,154,-788,-176,3350,2216,-4838
1665258263190,4,-8,272,145,-758,-172,3350,2216,-4838
1665258263206,4,-8,272,145,-758,-172,3350,2216,-4838
1665258263207,5,-6,272,144,-744,-170,3350,2216,-4838
1665258263207,5,-6,272,144,-744,-170,3350,2216,-4838
1665258263226,5,-6,272,159,-755,-173,3350,2216,-4838
1665258263228,5,-6,272,159,-755,-173,3350,2216,-4838
1665258263228,4,-3,271,181,-783,-178,3350,2216,-4838
1665258263228,4,-3,271,193,-784,-180,3350,2216,-4838
1665258263246,4,-3,271,193,-784,-180,3350,2216,-4838
1665258263250,4,-5,271,196,-771,-179,3350,2216,-4838
1665258263250,4,-5,271,196,-771,-179,3350,2216,-4838
1665258263250,4,-5,271,209,-758,-186,3350,2216,-4838
1665258263273,4,-5,271,209,-758,-186,3350,2216,-4838
1665258263277,5,-4,274,197,-761,-175,3362,2198,-4788
1665258263277,5,-4,274,197,-761,-175,3362,2198,-4788
1665258263277,5,-4,274,209,-769,-180,3362,2198,-4788
1665258263277,5,-4,274,212,-762,-182,3362,2198,-4788
1665258263297,5,-4,274,212,-762,-182,3362,2198,-4788
1665258263300,5,-4,274,218,-771,-183,3362,2198,-4788
1665258263300,5,-4,274,218,-771,-183,3362,2198,-4788
1665258263300,5,-5,274,217,-778,-184,3362,2198,-4788
1665258263319,5,-5,274,217,-778,-184,3362,2198,-4788
1665258263320,5,-5,274,214,-770,-186,3362,2198,-4788
1665258263320,5,-5,274,214,-770,-186,3362,2198,-4788
1665258263321,4,-3,274,216,-768,-183,3362,2198,-4788
1665258263340,4,-3,274,216,-771,-183,3362,2198,-4788
1665258263341,4,-3,274,216,-771,-183,3362,2198,-4788
1665258263341,4,-4,274,212,-775,-181,3362,2198,-4788
1665258263341,4,-4,274,212,-775,-181,3362,2198,-4788
1665258263363,4,-4,274,206,-761,-176,3362,2198,-4788
1665258263365,4,-4,274,206,-761,-176,3362,2198,-4788
1665258263365,4,-7,273,205,-763,-176,3363,2175,-4843
1665258263365,4,-7,273,205,-763,-177,3363,2175,-4843
1665258263377,4,-7,273,207,-763,-177,3363,2175,-4843
1665258263379,4,-7,275,195,-763,-175,3363,2175,-4843
1665258263379,4,-7,275,195,-763,-175,3363,2175,-4843
1665258263396,4,-7,275,194,-781,-177,3363,2175,-4843
1665258263398,4,-7,275,194,-781,-177,3363,2175,-4843
1665258263398,5,-4,273,192,-766,-174,3363,2175,-4843
1665258263419,5,-4,273,192,-766,-174,3363,2175,-4843
1665258263421,5,-4,273,198,-770,-179,3363,2175,-4843
1665258263421,5,-4,273,195,-766,-179,3363,2175,-4843
1665258263421,4,-6,275,195,-766,-179,3363,2175,-4843
1665258263421,4,-6,275,184,-757,-175,3363,2175,-4843
1665258263444,4,-6,275,184,-757,-175,3363,2175,-4843
1665258263445,5,-4,274,188,-767,-177,3363,2175,-4843
1665258263445,5,-4,274,188,-767,-177,3363,2175,-4843
1665258263445,5,-4,274,189,-763,-176,3363,2175,-4843
1665258263462,5,-4,274,189,-763,-176,3363,2175,-4843
1665258263464,4,-5,273,183,-775,-177,3363,2175,-4843
1665258263464,4,-5,273,182,-777,-178,3395,2203,-4750
1665258263464,4,-5,273,182,-777,-178,3395,2203,-4750
1665258263477,6,-6,273,172,-765,-175,3395,2203,-4750
1665258263479,6,-6,273,172,-765,-175,3395,2203,-4750
1665258263499,6,-6,273,182,-769,-174,3395,2203,-4750
1665258263500,6,-6,273,182,-769,-174,3395,2203,-4750
1665258263501,4,-3,272,190,-757,-176,3395,2203,-4750
1665258263501,4,-3,272,190,-757,-176,3395,2203,-4750
1665258263516,4,-3,272,207,-774,-181,3395,2203,-4750
1665258263518,4,-3,271,205,-777,-175,3395,2203,-4750
1665258263518,3,-1,271,205,-777,-175,3395,2203,-4750
1665258263519,3,-1,271,202,-771,-177,3395,2203,-4750
1665258263538,3,-1,271,202,-771,-177,3395,2203,-4750
1665258263540,4,-1,272,199,-777,-180,3395,2203,-4750
1665258263541,4,-1,272,199,-777,-180,3395,2203,-4750
1665258263541,4,-1,272,189,-778,-179,3395,2203,-4750
1665258263557,4,-1,272,189,-774,-179,3395,2203,-4750
1665258263559,4,-5,275,184,-774,-179,3395,2203,-4750
1665258263559,4,-5,275,172,-778,-177,3406,2205,-4790
1665258263573,4,-5,275,172,-778,-177,3406,2205,-4790
1665258263574,5,-7,273,179,-787,-182,3406,2205,-4790
1665258263574,5,-7,273,179,-787,-182,3406,2205,-4790
1665258263599,5,-7,273,162,-779,-180,3406,2205,-4790
1665258263601,5,-7,273,162,-779,-180,3406,2205,-4790
1665258263601,5,-7,274,151,-793,-173,3406,2205,-4790
1665258263601,5,-7,274,153,-786,-176,3406,2205,-4790
1665258263601,5,-7,274,153,-786,-176,3406,2205,-4790
1665258263626,5,-10,274,148,-774,-171,3406,2205,-4790
1665258263628,5,-10,274,148,-774,-171,3406,2205,-4790
1665258263628,5,-10,274,158,-779,-176,3406,2205,-4790
1665258263628,5,-10,274,158,-779,-176,3406,2205,-4790
1665258263628,5,-8,273,158,-782,-174,3406,2205,-4790
1665258263654,5,-8,273,158,-782,-174,3406,2205,-4790
1665258263656,5,-8,273,163,-780,-174,3406,2205,-4790
1665258263656,5,-8,273,167,-772,-171,3406,2205,-4790
1665258263656,5,-9,275,167,-772,-171,3406,2205,-4790
1665258263656,5,-9,275,163,-767,-170,3406,2205,-4790
1665258263672,5,-9,275,163,-767,-170,3362,2192,-4770
1665258263674,6,-10,275,167,-760,-172,3362,2192,-4770
1665258263674,6,-10,275,167,-760,-172,3362,2192,-4770
1665258263702,6,-10,275,169,-767,-174,3362,2192,-4770
1665258263703,6,-10,275,169,-767,-174,3362,2192,-4770
1665258263703,4,-8,275,175,-779,-171,3362,2192,-4770
1665258263703,4,-8,275,174,-782,-174,3362,2192,-4770
1665258263703,4,-8,275,174,-782,-174,3362,2192,-4770
1665258263704,5,-7,273,166,-774,-172,3362,2192,-4770
1665258263724,5,-7,273,166,-774,-172,3362,2192,-4770
1665258263726,5,-7,273,166,-771,-175,3362,2192,-4770
1665258263726,5,-7,273,166,-771,-175,3362,2192,-4770
1665258263727,5,-6,276,168,-754,-175,3362,2192,-4770
1665258263750,5,-6,276,168,-774,-177,3362,2192,-4770
1665258263752,5,-6,276,175,-774,-177,3362,2192,-4770
1665258263752,4,-4,274,180,-775,-178,3362,2192,-4770
1665258263752,4,-4,274,180,-775,-178,3362,2192,-4770
1665258263770,4,-4,274,194,-804,-179,3362,2192,-4770
1665258263772,4,-4,274,194,-804,-179,3345,2161,-4772
1665258263772,3,-3,273,252,-813,-203,3345,2161,-4772
1665258263772,3,-3,273,252,-813,-203,3345,2161,-4772
1665258263790,3,-3,273,223,-780,-179,3345,2161,-4772
1665258263793,3,-3,273,207,-767,-177,3345,2161,-4772
1665258263793,4,-3,271,207,-767,-177,3345,2161,-4772
1665258263793,4,-3,271,190,-757,-179,3345,2161,-4772
1665258263810,4,-3,271,190,-757,-179,3345,2161,-4772
1665258263812,4,-5,274,165,-734,-173,3345,2161,-4772
1665258263812,4,-5,274,165,-734,-173,3345,2161,-4772
1665258263834,4,-5,274,197,-769,-187,3345,2161,-4772
1665258263836,4,-5,274,197,-769,-187,3345,2161,-4772
1665258263836,4,-7,274,180,-777,-168,3345,2161,-4772
1665258263836,4,-7,274,219,-828,-184,3345,2161,-4772
1665258263836,4,-7,274,219,-828,-184,3345,2161,-4772
1665258263854,4,-2,271,202,-811,-180,3345,2161,-4772
1665258263855,4,-2,271,202,-811,-180,3345,2161,-4772
1665258263855,4,-2,271,175,-769,-176,3345,2161,-4772
1665258263870,4,-2,271,175,-769,-176,3345,2161,-4772
1665258263872,4,-2,272,173,-747,-176,3383,2169,-4780
1665258263872,4,-2,272,173,-747,-178,3383,2169,-4780
1665258263872,4,-2,272,173,-730,-178,3383,2169,-4780
1665258263889,4,-3,275,186,-766,-176,3383,2169,-4780
1665258263890,5,-3,275,186,-766,-176,3383,2169,-4780
1665258263890,5,-3,275,209,-799,-184,3383,2169,-4780
1665258263916,5,-3,275,209,-799,-184,3383,2169,-4780
1665258263917,4,-4,275,202,-801,-180,3383,2169,-4780
1665258263918,4,-4,275,202,-801,-180,3383,2169,-4780
1665258263918,4,-4,275,190,-798,-175,3383,2169,-4780
1665258263918,4,-4,275,190,-761,-175,3383,2169,-4780
1665258263943,4,-4,273,178,-761,-175,3383,2169,-4780
1665258263944,4,-4,273,169,-755,-169,3383,2169,-4780
1665258263945,4,-4,273,169,-755,-169,3383,2169,-4780
1665258263945,4,-3,275,183,-761,-172,3383,2169,-4780
1665258263945,4,-3,275,183,-761,-172,3383,2169,-4780
1665258263958,4,-3,275,188,-780,-171,3383,2169,-4780
1665258263960,4,-3,275,188,-780,-171,3383,2169,-4780
1665258263960,5,-5,275,204,-798,-178,3373,2142,-4769
1665258263974,5,-5,275,205,-803,-180,3373,2142,-4769
1665258263975,5,-5,275,205,-803,-180,3373,2142,-4769
1665258263976,5,-6,275,184,-775,-173,3373,2142,-4769
1665258263992,5,-6,275,184,-775,-173,3373,2142,-4769
1665258263994,5,-6,275,182,-768,-175,3373,2142,-4769
1665258263994,5,-6,275,182,-768,-175,3373,2142,-4769
1665258264010,4,-4,274,188,-767,-174,3373,2142,-4769
1665258264011,4,-4,274,188,-767,-174,3373,2142,-4769
1665258264011,4,-4,274,188,-780,-173,3373,2142,-4769
1665258264031,4,-4,274,189,-801,-172,3373,2142,-4769
1665258264034,4,-5,273,189,-801,-172,3373,2142,-4769
1665258264034,4,-5,273,188,-799,-174,3373,2142,-4769
1665258264034,4,-5,273,188,-799,-174,3373,2142,-4769
1665258264053,5,-7,275,187,-795,-175,3373,2142,-4769
1665258264054,5,-7,275,187,-795,-175,3373,2142,-4769
1665258264054,5,-7,275,174,-775,-172,3373,2142,-4769
1665258264054,5,-7,275,174,-775,-172,3373,2142,-4769
1665258264071,5,-6,273,176,-771,-172,3373,2142,-4769
1665258264073,5,-6,273,191,-764,-179,3389,2158,-4762
1665258264073,5,-6,273,191,-764,-179,3389,2158,-4762
1665258264089,5,-6,274,181,-788,-174,3389,2158,-4762
1665258264091,5,-6,274,181,-788,-174,3389,2158,-4762
1665258264091,5,-6,274,179,-774,-173,3389,2158,-4762
1665258264091,5,-6,274,179,-774,-173,3389,2158,-4762
1665258264108,4,-8,273,195,-780,-176,3389,2158,-4762
1665258264110,4,-8,273,195,-776,-175,3389,2158,-4762
1665258264110,4,-8,273,197,-776,-175,3389,2158,-4762
1665258264128,5,-6,273,191,-751,-175,3389,2158,-4762
1665258264131,5,-6,273,191,-751,-175,3389,2158,-4762
1665258264131,5,-6,273,188,-758,-177,3389,2158,-4762
1665258264131,5,-6,273,188,-758,-177,3389,2158,-4762
1665258264150,5,-8,274,171,-762,-171,3389,2158,-4762
1665258264151,5,-8,274,171,-762,-171,3389,2158,-4762
1665258264151,5,-8,274,182,-778,-177,3389,2158,-4762
1665258264151,5,-8,274,194,-775,-179,3389,2158,-4762
1665258264165,4,-8,275,194,-775,-179,3389,2158,-4762
1665258264167,4,-8,275,186,-775,-175,3426,2140,-4725
1665258264168,4,-8,275,186,-775,-175,3426,2140,-4725
1665258264181,5,-5,271,182,-777,-171,3426,2140,-4725
1665258264183,5,-5,271,182,-777,-171,3426,2140,-4725
1665258264183,5,-5,271,198,-763,-174,3426,2140,-4725
1665258264197,5,-5,271,198,-763,-174,3426,2140,-4725
1665258264199,5,-6,274,203,-765,-175,3426,2140,-4725
1665258264199,5,-6,274,182,-782,-166,3426,2140,-4725
1665258264222,5,-6,274,182,-782,-166,3426,2140,-4725
1665258264225,4,-5,274,183,-797,-171,3426,2140,-4725
1665258264225,4,-5,274,183,-797,-171,3426,2140,-4725
1665258264225,4,-5,274,172,-801,-168,3426,2140,-4725
1665258264246,4,-5,274,172,-801,-168,3426,2140,-4725
1665258264249,4,-3,273,161,-758,-163,3426,2140,-4725
1665258264249,4,-3,273,161,-758,-175,3426,2140,-4725
1665258264249,4,-3,273,188,-753,-175,3426,2140,-4725
1665258264249,4,-3,274,193,-780,-172,3426,2140,-4725
1665258264260,5,-3,274,193,-780,-172,3426,2140,-4725
1665258264262,5,-3,274,195,-791,-173,3426,2140,-4725
1665258264274,5,-3,274,195,-791,-173,3392,2166,-4741
1665258264276,4,-6,273,207,-793,-171,3392,2166,-4741
1665258264276,4,-6,273,207,-793,-171,3392,2166,-4741
1665258264293,4,-6,273,192,-767,-165,3392,2166,-4741
1665258264295,4,-6,273,172,-722,-161,3392,2166,-4741
1665258264295,5,-5,273,172,-722,-161,3392,2166,-4741
1665258264312,5,-5,273,195,-707,-177,3392,2166,-4741
1665258264314,5,-5,273,195,-707,-177,3392,2166,-4741
1665258264314,4,-4,274,223,-766,-181,3392,2166,-4741
1665258264314,4,-4,274,223,-766,-181,3392,2166,-4741
1665258264340,4,-4,274,239,-814,-181,3392,2166,-4741
1665258264341,4,-4,274,239,-814,-181,3392,2166,-4741
1665258264341,3,-4,271,228,-823,-177,3392,2166,-4741
1665258264341,3,-4,271,210,-785,-177,3392,2166,-4741
1665258264341,3,-4,271,210,-785,-177,3392,2166,-4741
1665258264355,4,-3,273,184,-747,-170,3392,2166,-4741
1665258264357,4,-3,273,184,-747,-170,3392,2166,-4741
1665258264357,4,-3,273,180,-756,-168,3392,2166,-4741
1665258264371,4,-3,273,180,-756,-168,3408,2141,-4730
1665258264372,3,-2,275,183,-771,-173,3408,2141,-4730
1665258264389,3,-2,275,183,-771,-173,3408,2141,-4730
1665258264391,3,-2,275,190,-783,-175,3408,2141,-4730
1665258264391,3,-2,274,198,-775,-180,3408,2141,-4730
1665258264391,5,-3,274,198,-775,-180,3408,2141,-4730
1665258264409,5,-3,274,194,-787,-180,3408,2141,-4730
1665258264411,5,-3,274,194,-787,-180,3408,2141,-4730
1665258264411,4,-5,273,173,-801,-172,3408,2141,-4730
1665258264411,4,-5,273,173,-801,-172,3408,2141,-4730
1665258264433,4,-5,273,158,-788,-174,3408,2141,-4730
1665258264437,4,-5,273,158,-788,-169,3408,2141,-4730
1665258264437,4,-4,273,146,-794,-169,3408,2141,-4730
1665258264437,4,-4,273,142,-769,-169,3408,2141,-4730
1665258264453,4,-4,273,142,-769,-169,3408,2141,-4730
1665258264455,4,-4,276,155,-778,-174,3408,2141,-4730
1665258264455,4,-4,276,155,-778,-174,3408,2141,-4730
1665258264455,4,-4,276,151,-796,-170,3408,2141,-4730
1665258264472,4,-4,276,151,-796,-170,3408,2141,-4730
1665258264473,5,-8,274,146,-800,-171,3389,2159,-4797
1665258264473,5,-8,274,147,-803,-172,3389,2159,-4797
1665258264488,5,-8,274,147,-803,-172,3389,2159,-4797
1665258264491,4,-5,273,138,-780,-169,3389,2159,-4797
1665258264491,4,-5,273,138,-780,-169,3389,2159,-4797
1665258264511,4,-5,273,145,-779,-169,3389,2159,-4797
1665258264513,4,-5,273,145,-779,-169,3389,2159,-4797
1665258264513,4,-8,274,141,-768,-161,3389,2159,-4797
1665258264513,4,-8,274,141,-768,-161,3389,2159,-4797
1665258264540,4,-8,274,154,-753,-165,3389,2159,-4797
1665258264542,4,-8,274,185,-749,-175,3389,2159,-4797
1665258264543,4,-4,275,185,-749,-175,3389,2159,-4797
1665258264543,4,-4,275,196,-764,-171,3389,2159,-4797
1665258264543,4,-4,275,196,-764,-171,3389,2159,-4797
1665258264543,4,-6,275,236,-797,-186,3389,2159,-4797
1665258264559,4,-6,275,236,-797,-186,3389,2159,-4797
1665258264561,4,-6,275,233,-791,-181,3389,2159,-4797
1665258264561,4,-6,275,233,-791,-181,3389,2159,-4797
1665258264575,5,-6,273,217,-783,-176,3401,2181,-4775
1665258264577,5,-6,273,215,-760,-180,3401,2181,-4775
1665258264577,5,-6,273,215,-760,-180,3401,2181,-4775
1665258264594,4,-6,274,214,-765,-179,3401,2181,-4775
1665258264595,4,-6,274,214,-765,-179,3401,2181,-4775
1665258264595,4,-6,274,222,-779,-181,3401,2181,-4775
1665258264616,4,-6,274,222,-779,-181,3401,2181,-4775
1665258264620,4,-6,274,215,-791,-178,3401,2181,-4775
1665258264620,4,-6,274,215,-805,-181,3401,2181,-4775
1665258264620,4,-6,274,224,-805,-181,3401,2181,-4775
1665258264620,5,-8,275,219,-766,-180,3401,2181,-4775
1665258264643,5,-8,275,219,-766,-180,3401,2181,-4775
1665258264646,5,-8,275,214,-763,-175,3401,2181,-4775
1665258264646,5,-8,275,214,-763,-175,3401,2181,-4775
1665258264646,5,-7,274,214,-761,-178,3401,2181,-4775
1665258264646,5,-7,274,214,-761,-178,3401,2181,-4775
1665258264672,5,-7,274,215,-766,-179,3401,2181,-4775
1665258264673,5,-7,274,218,-788,-183,3401,2181,-4775
1665258264673,4,-8,274,218,-788,-183,3401,2181,-4775
1665258264673,4,-8,274,208,-772,-180,3359,2153,-4778
1665258264673,4,-8,274,208,-772,-180,3359,2153,-4778
1665258264689,4,-6,273,211,-766,-180,3359,2153,-4778
1665258264691,4,-6,273,211,-766,-180,3359,2153,-4778
1665258264691,4,-6,273,210,-760,-178,3359,2153,-4778
1665258264709,4,-6,273,210,-760,-178,3359,2153,-4778
1665258264711,4,-6,274,217,-776,-181,3359,2153,-4778
1665258264711,4,-6,274,214,-788,-181,3359,2153,-4778
1665258264711,4,-6,274,214,-788,-181,3359,2153,-4778
1665258264730,3,-2,271,199,-791,-176,3359,2153,-4778
1665258264732,3,-2,271,199,-791,-176,3359,2153,-4778
1665258264732,3,-2,271,191,-778,-179,3359,2153,-4778
1665258264732,3,-2,271,191,-778,-179,3359,2153,-4778
1665258264755,3,-2,271,179,-768,-173,3359,2153,-4778
1665258264759,3,-2,271,179,-768,-173,3359,2153,-4778
1665258264759,3,-2,271,178,-765,-176,3359,2153,-4778
1665258264759,3,-2,273,172,-769,-173,3359,2153,-4778
1665258264759,4,-4,273,172,-769,-173,3359,2153,-4778
1665258264783,4,-4,273,182,-772,-177,3372,2141,-4744
1665258264785,4,-4,273,182,-772,-177,3372,2141,-4744
1665258264785,4,-7,274,188,-783,-176,3372,2141,-4744
1665258264785,4,-7,274,188,-783,-176,3372,2141,-4744
1665258264804,4,-7,274,186,-781,-172,3372,2141,-4744
1665258264806,4,-7,274,186,-775,-172,3372,2141,-4744
1665258264806,4,-6,273,192,-775,-172,3372,2141,-4744
1665258264806,4,-6,273,196,-767,-176,3372,2141,-4744
1665258264822,4,-6,273,196,-767,-176,3372,2141,-4744
1665258264824,5,-6,273,202,-780,-179,3372,2141,-4744
1665258264825,5,-6,273,202,-780,-179,3372,2141,-4744
1665258264825,5,-6,273,205,-787,-178,3372,2141,-4744
1665258264842,5,-6,273,205,-787,-178,3372,2141,-4744
1665258264843,4,-4,274,205,-778,-178,3372,2141,-4744
1665258264843,4,-4,274,205,-783,-178,3372,2141,-4744
1665258264861,4,-4,274,205,-783,-178,3372,2141,-4744
1665258264864,4,-7,273,195,-767,-173,3372,2141,-4744
1665258264864,4,-7,273,195,-767,-173,3372,2141,-4744
1665258264864,4,-7,273,208,-772,-181,3372,2141,-4744
1665258264884,4,-7,273,208,-772,-181,3392,2159,-4788
1665258264885,4,-5,274,205,-778,-180,3392,2159,-4788
1665258264885,4,-5,274,205,-778,-180,3392,2159,-4788
1665258264885,4,-5,274,205,-783,-180,3392,2159,-4788
1665258264898,4,-5,274,201,-788,-178,3392,2159,-4788
1665258264900,4,-8,273,201,-788,-178,3392,2159,-4788
1665258264900,4,-8,273,187,-780,-173,3392,2159,-4788
1665258264912,4,-8,273,187,-780,-173,3392,2159,-4788
1665258264914,5,-11,275,194,-777,-175,3392,2159,-4788
1665258264931,5,-11,275,194,-777,-175,3392,2159,-4788
1665258264935,5,-11,275,199,-780,-175,3392,2159,-4788
1665258264935,5,-11,275,199,-780,-177,3392,2159,-4788
1665258264935,4,-8,274,213,-787,-177,3392,2159,-4788
1665258264957,4,-8,274,229,-792,-181,3392,2159,-4788
1665258264958,4,-8,274,229,-792,-181,3392,2159,-4788
1665258264958,4,-3,273,228,-773,-182,3392,2159,-4788
1665258264959,4,-3,273,228,-773,-182,3392,2159,-4788
1665258264978,4,-3,273,159,-744,-155,3392,2159,-4788
1665258264980,4,-3,273,159,-744,-155,3391,2139,-4781
1665258264980,4,-4,276,173,-715,-177,3391,2139,-4781
1665258264980,4,-4,276,173,-773,-183,3391,2139,-4781
1665258264995,4,-4,276,199,-773,-183,3391,2139,-4781
1665258264996,5,-6,274,192,-784,-172,3391,2139,-4781
1665258264996,5,-6,274,192,-784,-172,3391,2139,-4781
1665258265010,5,-6,274,215,-788,-179,3391,2139,-4781
1665258265011,5,-6,274,215,-788,-179,3391,2139,-4781
1665258265011,4,-7,273,200,-766,-176,3391,2139,-4781
1665258265027,4,-7,273,200,-766,-176,3391,2139,-4781
1665258265030,4,-7,273,182,-737,-172,3391,2139,-4781
1665258265030,4,-7,273,187,-771,-174,3391,2139,-4781
1665258265046,5,-8,275,187,-771,-174,3391,2139,-4781
1665258265047,5,-8,275,182,-791,-170,3391,2139,-4781
1665258265047,5,-8,275,182,-791,-170,3391,2139,-4781
1665258265048,4,-4,271,197,-807,-175,3391,2139,-4781
1665258265069,4,-4,271,197,-807,-175,3391,2139,-4781
1665258265072,4,-4,271,192,-788,-176,3391,2139,-4781
1665258265072,4,-4,271,192,-788,-176,3391,2139,-4781
1665258265072,5,-5,272,179,-771,-173,3430,2144,-4812
1665258265085,5,-5,272,176,-756,-177,3430,2144,-4812
1665258265087,5,-5,272,176,-756,-177,3430,2144,-4812
1665258265087,4,-7,273,175,-767,-171,3430,2144,-4812
1665258265105,4,-7,273,175,-767,-171,3430,2144,-4812
1665258265106,4,-7,273,186,-772,-176,3430,2144,-4812
1665258265106,4,-7,273,186,-772,-176,3430,2144,-4812
1665258265122,4,-4,273,206,-785,-184,3430,2144,-4812
1665258265124,4,-4,273,206,-785,-177,3430,2144,-4812
1665258265124,4,-4,273,197,-793,-177,3430,2144,-4812
1665258265124,4,-4,273,194,-778,-177,3430,2144,-4812
1665258265142,4,-4,273,194,-778,-177,3430,2144,-4812
1665258265144,4,-4,273,192,-767,-176,3430,2144,-4812
1665258265144,4,-4,273,192,-767,-176,3430,2144,-4812
1665258265163,4,-6,275,182,-754,-173,3430,2144,-4812
1665258265165,4,-6,275,182,-754,-173,3430,2144,-4812
1665258265165,4,-6,275,200,-762,-181,3430,2144,-4812
1665258265165,4,-6,275,200,-798,-181,3430,2144,-4812
1665258265186,3,-3,272,205,-798,-181,3412,2142,-4782
1665258265188,3,-3,272,198,-792,-178,3412,2142,-4782
1665258265188,3,-3,272,198,-792,-178,3412,2142,-4782
1665258265188,4,-4,273,205,-788,-186,3412,2142,-4782
1665258265205,4,-4,273,205,-788,-186,3412,2142,-4782
1665258265207,4,-4,273,178,-776,-171,3412,2142,-4782
1665258265207,4,-4,273,178,-776,-171,3412,2142,-4782
1665258265207,5,-6,273,187,-764,-175,3412,2142,-4782
1665258265228,5,-6,273,196,-789,-175,3412,2142,-4782
1665258265230,5,-6,273,196,-789,-175,3412,2142,-4782
1665258265230,4,-4,272,183,-784,-169,3412,2142,-4782
1665258265231,4,-4,272,183,-784,-169,3412,2142,-4782
1665258265251,4,-4,272,202,-772,-181,3412,2142,-4782
1665258265253,4,-4,272,202,-772,-181,3412,2142,-4782
1665258265253,4,-3,274,206,-771,-179,3412,2142,-4782
1665258265253,4,-3,274,206,-771,-179,3412,2142,-4782
1665258265254,4,-3,274,201,-778,-171,3412,2142,-4782
1665258265271,4,-3,274,219,-774,-183,3412,2142,-4782
1665258265273,4,-6,275,219,-774,-183,3412,2142,-4782
1665258265273,4,-6,275,215,-784,-181,3412,2131,-4759
1665258265287,4,-6,275,215,-784,-181,3412,2131,-4759
1665258265289,4,-5,272,215,-790,-182,3412,2131,-4759
1665258265289,4,-5,272,215,-790,-182,3412,2131,-4759
1665258265306,4,-5,272,208,-779,-183,3412,2131,-4759
1665258265307,4,-5,272,208,-779,-183,3412,2131,-4759
1665258265308,3,-2,271,195,-765,-183,3412,2131,-4759
1665258265324,3,-2,271,181,-747,-178,3412,2131,-4759
1665258265327,3,-2,271,181,-747,-178,3412,2131,-4759
1665258265327,5,-5,273,197,-790,-174,3412,2131,-4759
1665258265327,5,-5,273,197,-790,-174,3412,2131,-4759
1665258265346,5,-5,273,214,-805,-180,3412,2131,-4759
1665258265347,5,-5,273,214,-805,-180,3412,2131,-4759
1665258265347,4,-6,271,215,-795,-177,3412,2131,-4759
1665258265347,4,-6,271,225,-774,-182,3412,2131,-4759
1665258265368,4,-6,271,225,-774,-182,3412,2131,-4759
1665258265368,4,-2,270,194,-738,-171,3412,2131,-4759
1665258265370,4,-2,270,194,-738,-171,3412,2131,-4759
1665258265370,4,-2,270,143,-656,-156,3452,2127,-4794
1665258265386,4,-2,270,143,-656,-156,3452,2127,-4794
1665258265388,5,-6,280,115,-572,-163,3452,2127,-4794
1665258265388,5,-6,280,115,-572,-163,3452,2127,-4794
1665258265406,5,-6,280,196,-727,-180,3452,2127,-4794
1665258265408,5,-6,280,209,-858,-168,3452,2127,-4794
1665258265408,4,-5,274,209,-858,-168,3452,2127,-4794
1665258265408,4,-5,274,250,-869,-188,3452,2127,-4794
1665258265427,4,-5,274,250,-869,-188,3452,2127,-4794
1665258265429,4,-5,266,225,-866,-176,3452,2127,-4794
1665258265429,4,-5,266,225,-866,-176,3452,2127,-4794
1665258265429,4,-5,266,179,-729,-176,3452,2127,-4794
1665258265452,4,-5,266,179,-729,-176,3452,2127,-4794
1665258265455,4,-7,275,144,-683,-168,3452,2127,-4794
1665258265455,4,-7,275,157,-726,-172,3452,2127,-4794
1665258265455,4,-7,275,157,-726,-172,3452,2127,-4794
1665258265455,4,-7,277,174,-779,-173,3452,2127,-4794
1665258265469,4,-7,277,174,-779,-173,3452,2127,-4794
1665258265472,4,-7,277,203,-858,-178,3452,2127,-4794
1665258265472,4,-7,277,203,-858,-178,3416,2143,-4761
1665258265487,4,-3,272,195,-824,-178,3416,2143,-4761
1665258265489,4,-3,272,195,-824,-177,3416,2143,-4761
1665258265489,4,-3,272,187,-785,-177,3416,2143,-4761
1665258265506,4,-5,273,164,-724,-170,3416,2143,-4761
1665258265508,4,-5,273,164,-724,-170,3416,2143,-4761
1665258265508,4,-5,273,158,-715,-168,3416,2143,-4761
1665258265524,4,-5,273,158,-715,-168,3416,2143,-4761
1665258265525,4,-6,275,177,-767,-174,3416,2143,-4761
1665258265525,4,-6,275,177,-767,-174,3416,2143,-4761
1665258265526,4,-6,275,182,-790,-174,3416,2143,-4761
1665258265544,4,-6,275,195,-817,-177,3416,2143,-4761
1665258265546,5,-8,273,195,-817,-177,3416,2143,-4761
1665258265546,5,-8,273,178,-790,-172,3416,2143,-4761
1665258265575,5,-8,273,178,-790,-172,3416,2143,-4761
1665258265577,4,-7,274,171,-762,-170,3416,2143,-4761
1665258265577,4,-7,274,171,-762,-170,3416,2143,-4761
1665258265577,4,-7,274,172,-749,-171,3416,2143,-4761
1665258265577,4,-7,274,172,-749,-171,3432,2116,-4760
1665258265577,6,-6,274,176,-757,-169,3432,2116,-4760
1665258265591,6,-6,274,191,-789,-174,3432,2116,-4760
1665258265593,6,-6,274,191,-789,-174,3432,2116,-4760
1665258265593,4,-3,272,191,-794,-176,3432,2116,-4760
1665258265608,4,-3,272,191,-794,-176,3432,2116,-4760
1665258265610,4,-3,272,185,-796,-176,3432,2116,-4760
1665258265610,4,-3,272,185,-796,-176,3432,2116,-4760
1665258265626,4,-4,272,170,-777,-176,3432,2116,-4760
1665258265628,4,-4,272,170,-777,-176,3432,2116,-4760
1665258265628,4,-4,272,159,-759,-173,3432,2116,-4760
1665258265655,4,-4,275,166,-765,-172,3432,2116,-4760
1665258265656,4,-8,275,166,-765,-172,3432,2116,-4760
1665258265657,4,-8,275,174,-770,-171,3432,2116,-4760
1665258265657,4,-8,275,174,-770,-171,3432,2116,-4760
1665258265657,4,-7,275,193,-790,-176,3432,2116,-4760
1665258265657,4,-7,275,193,-790,-176,3432,2116,-4760
1665258265676,4,-7,275,188,-783,-170,3432,2116,-4760
1665258265679,4,-7,275,188,-773,-170,3432,2116,-4760
1665258265679,5,-9,275,190,-773,-170,3459,2108,-4794
1665258265679,5,-9,275,192,-764,-170,3459,2108,-4794
1665258265704,5,-9,275,192,-764,-170,3459,2108,-4794
1665258265707,5,-6,275,198,-760,-172,3459,2108,-4794
1665258265708,5,-6,275,198,-760,-172,3459,2108,-4794
1665258265708,5,-6,275,208,-765,-176,3459,2108,-4794
1665258265708,5,-6,275,208,-765,-176,3459,2108,-4794
1665258265724,4,-6,274,207,-772,-174,3459,2108,-4794
1665258265726,4,-6,274,214,-786,-180,3459,2108,-4794
1665258265726,4,-6,274,214,-786,-180,3459,2108,-4794
1665258265742,4,-4,273,210,-781,-177,3459,2108,-4794
1665258265744,4,-4,273,210,-781,-177,3459,2108,-4794
1665258265744,4,-4,273,202,-769,-176,3459,2108,-4794
1665258265744,4,-4,273,202,-769,-176,3459,2108,-4794
1665258265764,5,-6,274,197,-768,-176,3459,2108,-4794
1665258265766,5,-6,274,197,-768,-176,3459,2108,-4794
1665258265766,5,-6,274,192,-775,-171,3459,2108,-4794
1665258265766,5,-6,274,196,-776,-171,3459,2108,-4794
1665258265789,5,-7,275,196,-776,-171,3439,2128,-4770
1665258265791,5,-7,275,195,-779,-170,3439,2128,-4770
1665258265792,5,-7,275,195,-779,-170,3439,2128,-4770
1665258265792,5,-5,274,198,-778,-173,3439,2128,-4770
1665258265817,5,-5,274,198,-778,-173,3439,2128,-4770
1665258265818,5,-5,274,190,-777,-174,3439,2128,-4770
1665258265819,5,-5,274,190,-777,-174,3439,2128,-4770
1665258265819,5,-6,274,174,-769,-171,3439,2128,-4770
1665258265819,5,-6,274,172,-771,-173,3439,2128,-4770
1665258265833,5,-6,274,172,-771,-173,3439,2128,-4770
1665258265835,5,-4,275,179,-773,-173,3439,2128,-4770
1665258265835,5,-4,275,179,-773,-173,3439,2128,-4770
1665258265848,5,-4,275,182,-778,-171,3439,2128,-4770
1665258265850,5,-4,275,182,-778,-171,3439,2128,-4770
1665258265850,3,-2,272,184,-784,-176,3439,2128,-4770
1665258265874,3,-2,272,184,-779,-177,3439,2128,-4770
1665258265875,3,-2,272,180,-779,-177,3439,2128,-4770
1665258265875,3,-2,274,170,-773,-174,3439,2128,-4770
1665258265875,3,-2,274,170,-773,-174,3439,2128,-4770
1665258265875,3,-2,274,172,-771,-174,3463,2119,-4766
1665258265894,3,-2,274,172,-771,-174,3463,2119,-4766
1665258265897,5,-5,274,171,-777,-172,3463,2119,-4766
1665258265897,5,-5,274,171,-777,-172,3463,2119,-4766
1665258265897,5,-5,274,171,-782,-171,3463,2119,-4766
1665258265916,5,-5,274,168,-776,-170,3463,2119,-4766
1665258265918,4,-5,275,168,-776,-170,3463,2119,-4766
1665258265918,4,-5,275,166,-780,-169,3463,2119,-4766
1665258265918,4,-5,275,166,-780,-169,3463,2119,-4766
1665258265929,4,-6,273,159,-772,-168,3463,2119,-4766
1665258265931,4,-6,273,159,-772,-168,3463,2119,-4766
1665258265945,4,-6,273,169,-769,-171,3463,2119,-4766
1665258265947,4,-6,273,169,-769,-171,3463,2119,-4766
1665258265947,4,-5,274,167,-774,-167,3463,2119,-4766
1665258265963,4,-5,274,178,-775,-172,3463,2119,-4766
1665258265964,4,-5,274,178,-775,-172,3463,2119,-4766
1665258265964,5,-3,273,178,-776,-171,3463,2119,-4766
1665258265981,5,-3,273,178,-776,-171,3463,2119,-4766
1665258265983,5,-3,273,183,-784,-174,3416,2093,-4721
1665258265983,5,-3,273,183,-784,-174,3416,2093,-4721
1665258265983,4,-6,274,171,-774,-172,3416,2093,-4721
1665258265998,4,-6,274,171,-774,-172,3416,2093,-4721
1665258265999,4,-6,274,170,-777,-172,3416,2093,-4721
1665258265999,4,-7,274,172,-773,-172,3416,2093,-4721
1665258266024,5,-7,274,172,-773,-172,3416,2093,-4721
