timestamp,Accel X,Accel Y,Accel Z,Gyro X,Gyro Y,Gyro Z,Mag X,Mag Y,Mag Z
1665258562017,2,5,279,63,-498,848,3334,2334,-4433
1665258562020,2,5,279,65,-498,849,3328,2316,-4370
1665258562020,2,5,279,65,-498,849,3328,2316,-4370
1665258562020,1,5,278,65,-497,842,3328,2316,-4370
1665258562020,1,5,278,65,-497,842,3328,2316,-4370
1665258562032,1,5,278,68,-500,841,3328,2316,-4370
1665258562033,1,5,278,65,-497,845,3328,2316,-4370
1665258562051,3,6,278,65,-497,845,3328,2316,-4370
1665258562053,3,6,278,65,-498,845,3328,2316,-4370
1665258562053,3,6,278,65,-498,845,3328,2316,-4370
1665258562053,0,4,278,57,-497,846,3328,2316,-4370
1665258562084,0,4,278,57,-497,846,3328,2316,-4370
1665258562086,0,4,278,69,-499,840,3328,2316,-4370
1665258562086,0,4,278,69,-499,840,3328,2316,-4370
1665258562086,2,6,278,63,-490,846,3328,2316,-4370
1665258562086,2,6,278,57,-498,850,3328,2316,-4370
1665258562086,2,6,278,57,-498,850,3328,2316,-4370
1665258562107,2,5,278,63,-495,846,3328,2316,-4370
1665258562108,2,5,278,63,-495,846,3328,2316,-4370
1665258562108,2,5,278,65,-487,845,3339,2306,-4399
1665258562109,2,5,278,65,-487,845,3339,2306,-4399
1665258562120,1,5,278,59,-497,851,3339,2306,-4399
1665258562122,1,5,278,59,-497,851,3339,2306,-4399
1665258562136,1,5,278,63,-497,850,3339,2306,-4399
1665258562138,1,5,279,65,-488,847,3339,2306,-4399
1665258562138,2,5,279,65,-488,847,3339,2306,-4399
1665258562166,2,5,279,63,-500,845,3339,2306,-4399
1665258562167,2,5,279,63,-500,845,3339,2306,-4399
1665258562167,1,5,278,63,-495,845,3339,2306,-4399
1665258562167,1,5,278,63,-495,845,3339,2306,-4399
1665258562167,1,5,278,72,-493,840,3339,2306,-4399
1665258562168,1,5,278,72,-497,845,3339,2306,-4399
1665258562198,2,6,279,63,-497,845,3339,2306,-4399
1665258562200,2,6,279,61,-501,845,3339,2306,-4399
1665258562200,2,6,279,61,-501,845,3339,2306,-4399
1665258562200,0,3,277,69,-500,841,3339,2306,-4399
1665258562200,0,3,277,69,-500,841,3339,2306,-4399
1665258562201,0,3,277,75,-499,840,3339,2306,-4399
1665258562216,0,3,277,75,-499,840,3339,2301,-4434
1665258562218,2,6,279,68,-500,841,3339,2301,-4434
1665258562218,2,6,279,64,-499,843,3339,2301,-4434
1665258562232,2,6,279,64,-499,843,3339,2301,-4434
1665258562234,2,5,278,71,-498,839,3339,2301,-4434
1665258562234,2,5,278,71,-498,839,3339,2301,-4434
1665258562248,2,5,278,66,-492,843,3339,2301,-4434
1665258562250,2,5,278,66,-492,843,3339,2301,-4434
1665258562250,2,4,279,60,-497,845,3339,2301,-4434
1665258562266,2,4,279,60,-497,845,3339,2301,-4434
1665258562268,2,4,279,64,-495,839,3339,2301,-4434
1665258562268,2,4,279,67,-491,839,3339,2301,-4434
1665258562285,3,4,278,67,-491,839,3339,2301,-4434
1665258562288,3,4,278,64,-499,842,3339,2301,-4434
1665258562288,3,4,278,64,-499,842,3339,2301,-4434
1665258562288,1,5,279,66,-502,841,3339,2301,-4434
1665258562312,1,5,279,66,-502,841,3339,2301,-4434
1665258562314,1,5,279,67,-497,841,3339,2301,-4434
1665258562314,1,5,279,67,-497,845,3325,2311,-4419
1665258562314,2,5,277,62,-492,845,3325,2311,-4419
1665258562314,2,5,277,63,-495,847,3325,2311,-4419
1665258562330,2,5,277,63,-495,847,3325,2311,-4419
1665258562331,2,5,279,66,-494,847,3325,2311,-4419
1665258562331,2,5,279,66,-494,847,3325,2311,-4419
1665258562345,2,5,279,61,-492,849,3325,2311,-4419
1665258562347,2,5,279,61,-492,849,3325,2311,-4419
1665258562347,0,5,278,61,-497,847,3325,2311,-4419
1665258562363,0,5,278,61,-496,847,3325,2311,-4419
1665258562365,0,5,278,65,-496,847,3325,2311,-4419
1665258562365,2,5,278,64,-496,847,3325,2311,-4419
1665258562382,2,5,278,64,-496,847,3325,2311,-4419
1665258562384,2,5,278,62,-499,848,3325,2311,-4419
1665258562384,2,5,278,62,-499,848,3325,2311,-4419
1665258562384,2,5,278,63,-495,845,3325,2311,-4419
1665258562404,2,5,278,63,-495,845,3325,2311,-4419
1665258562407,2,5,278,64,-497,845,3325,2311,-4419
1665258562407,2,5,278,57,-495,850,3325,2311,-4419
1665258562407,2,5,277,57,-495,850,3331,2284,-4391
1665258562429,2,5,277,62,-498,845,3331,2284,-4391
1665258562433,2,5,277,62,-498,845,3331,2284,-4391
1665258562433,2,6,279,66,-492,844,3331,2284,-4391
1665258562433,2,6,279,66,-492,844,3331,2284,-4391
1665258562434,2,6,279,65,-498,843,3331,2284,-4391
1665258562452,2,6,279,65,-498,843,3331,2284,-4391
1665258562455,2,5,277,60,-499,846,3331,2284,-4391
1665258562455,2,5,277,64,-496,845,3331,2284,-4391
1665258562455,2,5,277,64,-496,845,3331,2284,-4391
1665258562469,1,5,279,64,-494,845,3331,2284,-4391
1665258562471,1,5,279,64,-494,845,3331,2284,-4391
1665258562471,1,5,279,62,-499,848,3331,2284,-4391
1665258562488,1,5,279,62,-499,848,3331,2284,-4391
1665258562491,2,6,277,64,-499,845,3331,2284,-4391
1665258562491,2,6,277,64,-499,845,3331,2284,-4391
1665258562512,2,6,277,63,-496,845,3331,2284,-4391
1665258562515,2,5,278,63,-495,847,3331,2284,-4391
1665258562515,1,5,278,63,-495,847,3327,2312,-4449
1665258562515,1,5,278,62,-494,850,3327,2312,-4449
1665258562515,1,5,278,62,-494,850,3327,2312,-4449
1665258562531,2,5,278,61,-495,851,3327,2312,-4449
1665258562532,2,5,278,61,-495,851,3327,2312,-4449
1665258562532,2,5,278,64,-492,851,3327,2312,-4449
1665258562546,2,5,278,62,-490,850,3327,2312,-4449
1665258562548,1,4,277,62,-490,850,3327,2312,-4449
1665258562548,1,4,277,60,-493,851,3327,2312,-4449
1665258562566,1,4,277,60,-493,851,3327,2312,-4449
1665258562568,2,4,279,64,-494,847,3327,2312,-4449
1665258562568,2,4,279,64,-494,847,3327,2312,-4449
1665258562568,2,4,279,64,-497,847,3327,2312,-4449
1665258562586,2,4,279,64,-497,847,3327,2312,-4449
1665258562589,1,4,277,63,-497,850,3327,2312,-4449
1665258562589,1,4,277,59,-492,851,3327,2312,-4449
1665258562612,1,4,277,59,-492,851,3327,2312,-4449
1665258562615,2,6,280,66,-493,849,3327,2312,-4449
1665258562615,2,6,280,66,-493,849,3327,2312,-4454
1665258562615,2,6,280,59,-490,854,3360,2331,-4454
1665258562615,2,6,280,59,-490,854,3360,2331,-4454
1665258562631,1,5,277,61,-491,856,3360,2331,-4454
1665258562632,1,5,277,61,-491,856,3360,2331,-4454
1665258562632,1,5,277,64,-489,852,3360,2331,-4454
1665258562647,1,5,278,59,-491,852,3360,2331,-4454
1665258562649,2,5,278,59,-491,852,3360,2331,-4454
1665258562649,2,5,278,62,-493,848,3360,2331,-4454
1665258562671,2,5,278,62,-493,848,3360,2331,-4454
1665258562674,1,6,278,66,-490,845,3360,2331,-4454
1665258562675,1,6,278,66,-490,845,3360,2331,-4454
1665258562675,1,6,278,62,-498,847,3360,2331,-4454
1665258562675,1,6,278,62,-498,849,3360,2331,-4454
1665258562695,1,5,277,64,-497,849,3360,2331,-4454
1665258562697,1,5,277,66,-487,850,3360,2331,-4454
1665258562698,1,5,277,66,-487,850,3360,2331,-4454
1665258562698,2,6,278,64,-492,853,3360,2331,-4454
1665258562726,2,6,278,64,-492,853,3360,2331,-4454
1665258562728,2,6,278,61,-491,855,3332,2317,-4441
1665258562728,2,6,278,61,-491,855,3332,2317,-4441
1665258562728,2,5,278,64,-491,850,3332,2317,-4441
1665258562728,2,5,278,67,-495,846,3332,2317,-4441
1665258562728,2,5,278,67,-495,846,3332,2317,-4441
1665258562745,2,5,278,65,-489,848,3332,2317,-4441
1665258562747,2,5,278,65,-489,848,3332,2317,-4441
1665258562747,2,5,278,63,-487,849,3332,2317,-4441
1665258562765,2,5,278,63,-487,849,3332,2317,-4441
1665258562766,2,5,278,64,-492,849,3332,2317,-4441
1665258562766,2,5,278,64,-492,849,3332,2317,-4441
1665258562766,2,5,278,67,-494,848,3332,2317,-4441
1665258562790,2,5,278,63,-492,851,3332,2317,-4441
1665258562793,2,5,278,63,-492,851,3332,2317,-4441
1665258562794,2,5,278,70,-497,848,3332,2317,-4441
1665258562794,2,5,278,70,-497,848,3332,2317,-4441
1665258562794,2,4,278,68,-495,845,3332,2317,-4441
1665258562813,2,4,278,68,-495,845,3332,2317,-4441
1665258562814,2,4,278,64,-498,846,3332,2288,-4405
1665258562815,2,4,278,64,-498,846,3337,2288,-4405
1665258562815,1,4,278,66,-500,845,3337,2288,-4405
1665258562835,1,4,278,60,-495,840,3337,2288,-4405
1665258562836,1,4,278,60,-495,840,3337,2288,-4405
1665258562836,2,4,279,70,-499,833,3337,2288,-4405
1665258562836,2,4,279,70,-499,833,3337,2288,-4405
1665258562848,2,4,279,72,-498,830,3337,2288,-4405
1665258562850,2,4,279,72,-498,830,3337,2288,-4405
1665258562864,2,6,279,73,-505,833,3337,2288,-4405
1665258562865,2,6,279,73,-502,839,3337,2288,-4405
1665258562865,2,6,279,67,-502,839,3337,2288,-4405
1665258562882,3,6,277,71,-499,835,3337,2288,-4405
1665258562883,3,6,277,71,-499,835,3337,2288,-4405
1665258562883,3,6,277,73,-494,837,3337,2288,-4405
1665258562900,3,6,277,73,-494,837,3337,2288,-4405
1665258562902,2,7,278,66,-488,843,3337,2288,-4405
1665258562902,2,7,278,66,-488,843,3337,2288,-4405
1665258562902,2,7,278,67,-493,846,3337,2288,-4405
1665258562920,2,7,278,74,-493,842,3335,2295,-4385
1665258562923,2,5,278,74,-493,842,3335,2295,-4385
1665258562923,2,5,278,64,-486,848,3335,2295,-4385
1665258562923,2,5,278,64,-486,848,3335,2295,-4385
1665258562943,1,4,279,74,-507,839,3335,2295,-4385
1665258562944,1,4,279,74,-507,839,3335,2295,-4385
1665258562944,1,4,279,86,-501,827,3335,2295,-4385
1665258562944,1,4,279,86,-501,827,3335,2295,-4385
1665258562962,1,4,279,82,-499,823,3335,2295,-4385
1665258562963,1,4,279,83,-513,826,3335,2295,-4385
1665258562963,1,4,279,83,-513,826,3335,2295,-4385
1665258562985,1,6,278,97,-506,820,3335,2295,-4385
1665258562987,1,6,278,97,-506,820,3335,2295,-4385
1665258562987,1,6,278,80,-496,829,3335,2295,-4385
1665258562987,1,6,278,80,-496,829,3335,2295,-4385
1665258562987,1,10,278,75,-506,840,3335,2295,-4385
1665258563009,1,10,278,75,-506,840,3335,2295,-4385
1665258563012,1,10,278,53,-487,858,3335,2295,-4385
1665258563012,1,10,276,56,-499,842,3079,2298,-4394
1665258563012,2,5,276,56,-499,842,3318,2298,-4394
1665258563027,2,5,276,91,-489,835,3318,2298,-4394
1665258563029,2,5,276,91,-489,835,3318,2298,-4394
1665258563029,2,7,279,61,-471,847,3318,2298,-4394
1665258563047,2,7,279,61,-471,847,3318,2298,-4394
1665258563048,2,7,279,48,-511,865,3318,2298,-4394
1665258563048,2,7,279,48,-495,849,3318,2298,-4394
1665258563048,2,5,276,76,-495,849,3318,2298,-4394
1665258563063,2,5,276,58,-469,849,3318,2298,-4394
1665258563065,2,5,276,58,-469,849,3318,2298,-4394
1665258563065,2,4,277,58,-515,854,3318,2298,-4394
1665258563082,2,4,277,58,-515,854,3318,2298,-4394
1665258563084,2,4,277,68,-498,846,3318,2298,-4394
1665258563084,2,4,277,68,-498,846,3318,2298,-4394
1665258563107,1,6,279,64,-477,847,3318,2298,-4394
1665258563109,1,6,279,58,-509,856,3318,2298,-4394
1665258563109,1,6,279,58,-509,856,3318,2298,-4394
1665258563109,2,5,277,60,-489,851,3318,2298,-4394
1665258563109,2,5,277,60,-489,851,3336,2305,-4453
1665258563126,2,5,277,59,-474,847,3336,2305,-4453
1665258563127,2,5,277,59,-474,847,3336,2305,-4453
1665258563127,2,5,279,58,-495,853,3336,2305,-4453
1665258563144,2,5,279,58,-495,853,3336,2305,-4453
1665258563146,2,5,279,64,-492,848,3336,2305,-4453
1665258563146,2,5,279,59,-480,848,3336,2305,-4453
1665258563146,2,5,279,59,-480,848,3336,2305,-4453
1665258563161,2,5,279,70,-500,847,3336,2305,-4453
1665258563163,2,5,279,70,-500,847,3336,2305,-4453
1665258563163,2,5,279,70,-496,850,3336,2305,-4453
1665258563186,2,5,279,70,-496,850,3336,2305,-4453
1665258563189,2,5,279,69,-495,850,3336,2305,-4453
1665258563189,2,5,279,69,-495,850,3336,2305,-4453
1665258563189,1,4,278,76,-501,852,3336,2305,-4453
1665258563189,1,4,278,63,-491,857,3336,2305,-4453
1665258563213,1,4,278,63,-491,857,3336,2305,-4453
1665258563215,2,5,280,68,-497,857,3336,2305,-4453
1665258563215,2,5,280,68,-497,857,3332,2287,-4447
1665258563215,2,5,280,67,-494,853,3332,2287,-4447
1665258563230,2,5,280,67,-494,853,3332,2287,-4447
1665258563232,1,5,277,68,-493,848,3332,2287,-4447
1665258563232,1,5,277,68,-496,851,3332,2287,-4447
1665258563232,1,5,277,62,-496,851,3332,2287,-4447
1665258563246,2,6,278,60,-498,854,3332,2287,-4447
1665258563248,2,6,278,60,-498,854,3332,2287,-4447
1665258563265,2,6,278,58,-496,858,3332,2287,-4447
1665258563267,2,6,278,58,-496,858,3332,2287,-4447
1665258563267,3,5,277,67,-498,847,3332,2287,-4447
1665258563267,3,5,277,67,-498,847,3332,2287,-4447
1665258563284,3,5,277,87,-488,838,3332,2287,-4447
1665258563286,3,5,277,43,-483,877,3332,2287,-4447
1665258563286,2,4,278,43,-483,877,3332,2287,-4447
1665258563312,2,4,278,26,-512,882,3332,2287,-4447
1665258563314,2,4,278,26,-512,882,3332,2287,-4447
1665258563314,1,4,275,93,-501,850,3332,2287,-4447
1665258563314,1,4,275,93,-501,850,3332,2287,-4447
1665258563314,1,4,275,64,-451,848,3349,2284,-4448
1665258563314,1,4,275,64,-451,848,3349,2284,-4448
1665258563327,1,4,280,49,-511,860,3349,2284,-4448
1665258563329,1,4,280,76,-513,847,3349,2284,-4448
1665258563344,1,4,280,76,-513,847,3349,2284,-4448
1665258563345,2,6,280,63,-470,844,3349,2284,-4448
1665258563346,2,6,280,63,-470,844,3349,2284,-4448
1665258563362,2,6,280,53,-514,862,3349,2284,-4448
1665258563363,2,6,280,53,-514,862,3349,2284,-4448
1665258563363,2,4,277,65,-513,864,3349,2284,-4448
1665258563363,2,4,277,65,-513,854,3349,2284,-4448
1665258563390,2,4,277,64,-469,854,3349,2284,-4448
1665258563392,2,6,279,60,-492,857,3349,2284,-4448
1665258563392,2,6,279,60,-492,857,3349,2284,-4448
1665258563392,2,6,279,65,-502,859,3349,2284,-4448
1665258563393,2,6,279,65,-502,859,3349,2284,-4448
1665258563412,2,4,280,55,-477,857,3349,2284,-4448
1665258563414,2,4,280,55,-477,857,3349,2284,-4448
1665258563414,2,4,280,60,-501,861,3343,2279,-4478
1665258563414,2,4,280,60,-500,867,3343,2279,-4478
1665258563435,2,5,279,55,-500,867,3343,2279,-4478
1665258563438,2,5,279,57,-482,864,3343,2279,-4478
1665258563438,2,5,279,57,-482,864,3343,2279,-4478
1665258563438,2,3,279,60,-490,868,3343,2279,-4478
1665258563451,2,3,279,60,-490,868,3343,2279,-4478
1665258563453,2,3,279,47,-487,866,3343,2279,-4478
1665258563453,2,3,279,47,-487,866,3343,2279,-4478
1665258563471,2,3,279,57,-484,865,3343,2279,-4478
1665258563473,2,3,279,50,-482,864,3343,2279,-4478
1665258563474,2,3,279,50,-482,864,3343,2279,-4478
1665258563474,2,3,278,48,-498,871,3343,2279,-4478
1665258563494,2,3,278,48,-498,871,3343,2279,-4478
1665258563496,2,3,278,52,-494,867,3343,2279,-4478
1665258563496,2,3,278,52,-494,867,3343,2279,-4478
1665258563496,2,3,280,52,-482,868,3343,2279,-4478
1665258563514,2,3,280,52,-482,868,3343,2279,-4478
1665258563516,2,3,280,61,-494,866,3343,2279,-4478
1665258563516,2,3,280,63,-486,871,3334,2280,-4468
1665258563516,2,2,277,63,-486,871,3334,2280,-4468
1665258563530,2,2,277,67,-485,866,3334,2280,-4468
1665258563531,2,2,277,67,-485,866,3334,2280,-4468
1665258563532,0,0,282,47,-468,879,3334,2280,-4468
1665258563551,0,0,282,47,-468,879,3334,2280,-4468
1665258563553,0,0,282,40,-497,865,3334,2280,-4468
1665258563553,0,0,282,40,-497,842,3334,2280,-4468
1665258563553,2,2,278,80,-495,842,3334,2280,-4468
1665258563575,2,2,278,44,-467,844,3334,2280,-4468
1665258563576,2,2,278,44,-467,844,3334,2280,-4468
1665258563576,1,2,278,47,-526,851,3334,2280,-4468
1665258563576,1,2,278,47,-526,851,3334,2280,-4468
1665258563596,1,2,278,65,-511,841,3334,2280,-4468
1665258563599,1,2,278,65,-511,841,3334,2280,-4468
1665258563599,3,4,279,60,-478,852,3334,2280,-4468
1665258563599,3,4,279,42,-502,866,3334,2280,-4468
1665258563614,3,4,279,42,-502,866,3334,2280,-4468
1665258563616,2,2,278,53,-487,855,3345,2291,-4478
1665258563616,2,2,278,53,-487,855,3345,2291,-4478
1665258563631,2,2,278,56,-459,843,3345,2291,-4478
1665258563633,2,2,278,56,-459,843,3345,2291,-4478
1665258563633,3,4,280,54,-490,852,3345,2291,-4478
1665258563646,3,4,280,54,-490,852,3345,2291,-4478
1665258563648,3,4,280,76,-506,852,3345,2291,-4478
1665258563648,3,4,280,72,-484,873,3345,2291,-4478
1665258563672,2,5,279,72,-484,873,3345,2291,-4478
1665258563673,2,5,279,69,-505,890,3345,2291,-4478
1665258563674,2,5,279,69,-505,890,3345,2291,-4478
1665258563674,3,4,277,75,-497,894,3345,2291,-4478
1665258563674,3,4,277,75,-497,894,3345,2291,-4478
1665258563698,3,4,277,73,-465,905,3345,2291,-4478
1665258563701,3,4,277,73,-465,905,3345,2291,-4478
1665258563701,1,0,280,54,-463,915,3345,2291,-4478
1665258563701,1,0,280,56,-472,908,3345,2291,-4478
1665258563701,1,0,280,56,-472,908,3345,2291,-4478
1665258563727,2,1,281,75,-458,905,3345,2291,-4478
1665258563729,2,1,281,75,-458,905,3337,2270,-4445
1665258563729,2,1,281,52,-467,901,3337,2270,-4445
1665258563729,2,1,281,52,-467,901,3337,2270,-4445
1665258563729,2,0,279,64,-503,893,3337,2270,-4445
1665258563745,2,0,279,64,-503,875,3337,2270,-4445
1665258563747,2,0,279,68,-482,875,3337,2270,-4445
1665258563747,2,2,281,58,-480,871,3337,2270,-4445
1665258563771,3,2,281,58,-480,871,3337,2270,-4445
1665258563773,3,2,281,69,-503,875,3337,2270,-4445
1665258563773,3,2,281,69,-503,875,3337,2270,-4445
1665258563773,3,1,279,61,-473,897,3337,2270,-4445
1665258563773,3,1,279,61,-473,897,3337,2270,-4445
1665258563797,3,1,279,48,-469,899,3337,2270,-4445
1665258563799,3,1,279,54,-484,888,3337,2270,-4445
1665258563800,3,3,279,54,-484,888,3337,2270,-4445
1665258563800,3,3,279,47,-460,903,3337,2270,-4445
1665258563800,3,3,279,47,-460,903,3337,2270,-4445
1665258563827,5,7,281,39,-468,918,3337,2270,-4445
1665258563828,5,7,281,39,-468,918,3324,2260,-4420
1665258563828,5,7,281,42,-492,958,3324,2260,-4420
1665258563828,5,7,281,42,-492,958,3324,2260,-4420
1665258563828,2,-1,281,25,-478,1001,3324,2260,-4420
1665258563844,2,-1,281,47,-463,986,3324,2260,-4420
1665258563845,2,-1,281,47,-463,986,3324,2260,-4420
1665258563845,3,-3,281,47,-443,958,3324,2260,-4420
1665258563862,3,-3,281,47,-443,958,3324,2260,-4420
1665258563863,3,-3,281,46,-442,937,3324,2260,-4420
1665258563863,3,-3,281,46,-442,937,3324,2260,-4420
1665258563863,2,-4,283,59,-467,906,3324,2260,-4420
1665258563888,2,-4,283,59,-467,906,3324,2260,-4420
1665258563890,2,-4,283,64,-491,879,3324,2260,-4420
1665258563890,2,-4,283,61,-512,877,3324,2260,-4420
1665258563890,3,-2,283,61,-512,877,3324,2260,-4420
1665258563891,3,-2,283,78,-519,868,3324,2260,-4420
1665258563912,3,-2,283,78,-519,868,3324,2260,-4420
1665258563914,3,0,280,75,-500,870,3324,2260,-4420
1665258563914,3,0,280,75,-500,870,3324,2260,-4420
1665258563915,3,0,280,72,-497,886,3358,2222,-4407
1665258563928,3,0,280,72,-479,912,3358,2222,-4407
1665258563929,3,-3,282,71,-479,912,3358,2222,-4407
1665258563929,3,-3,282,46,-455,915,3358,2222,-4407
1665258563945,3,-3,282,46,-455,915,3358,2222,-4407
1665258563947,3,-3,280,45,-463,897,3358,2222,-4407
1665258563948,3,-3,280,45,-463,897,3358,2222,-4407
1665258563962,3,-3,280,11,-478,898,3358,2222,-4407
1665258563964,3,-3,280,11,-478,898,3358,2222,-4407
1665258563964,3,-6,282,44,-512,863,3358,2222,-4407
1665258563980,3,-6,282,88,-488,824,3358,2222,-4407
1665258563982,3,-6,282,88,-488,824,3358,2222,-4407
1665258563982,5,0,281,63,-497,835,3358,2222,-4407
1665258564001,5,0,281,63,-497,835,3358,2222,-4407
1665258564003,5,0,281,64,-544,863,3358,2222,-4407
1665258564003,5,0,281,64,-544,863,3358,2222,-4407
1665258564004,5,-1,281,65,-500,874,3358,2222,-4407
1665258564023,5,-1,281,65,-500,874,3358,2222,-4407
1665258564024,5,-1,281,66,-474,881,3362,2278,-4462
1665258564024,5,-1,281,63,-483,901,3362,2278,-4462
1665258564025,5,1,281,63,-483,901,3362,2278,-4462
1665258564037,5,1,281,61,-471,918,3362,2278,-4462
1665258564039,5,1,281,61,-471,918,3362,2278,-4462
1665258564039,4,-2,287,36,-443,911,3362,2278,-4462
1665258564050,4,-2,287,36,-443,911,3362,2278,-4462
1665258564052,4,-2,287,-7,-485,921,3362,2278,-4462
1665258564070,4,-2,287,-7,-485,921,3362,2278,-4462
1665258564071,4,-3,276,-27,-541,941,3362,2278,-4462
1665258564071,4,-3,276,18,-514,944,3362,2278,-4462
1665258564072,4,-3,276,18,-514,944,3362,2278,-4462
1665258564086,5,-2,280,52,-474,943,3362,2278,-4462
1665258564088,5,-2,280,52,-474,943,3362,2278,-4462
1665258564088,5,-2,280,55,-493,976,3362,2278,-4462
1665258564103,5,-2,280,55,-493,976,3362,2278,-4462
1665258564105,4,-4,280,72,-475,1001,3362,2278,-4462
1665258564105,4,-4,280,72,-419,992,3362,2278,-4462
1665258564120,4,-4,280,80,-419,992,3362,2278,-4462
1665258564122,5,-5,285,59,-418,1008,3379,2227,-4418
1665258564122,5,-5,285,59,-418,1008,3379,2227,-4418
1665258564138,5,-5,285,72,-461,1014,3379,2227,-4418
1665258564141,5,-5,285,72,-461,1014,3379,2227,-4418
1665258564141,6,-2,282,83,-453,1009,3379,2227,-4418
1665258564141,6,-2,282,83,-453,1009,3379,2227,-4418
1665258564167,6,-2,282,73,-449,1044,3379,2227,-4418
1665258564172,6,-2,282,41,-461,1058,3379,2227,-4418
1665258564172,4,-8,282,41,-461,1058,3379,2227,-4418
1665258564172,4,-8,282,5,-456,1082,3379,2227,-4418
1665258564173,4,-8,282,5,-456,1082,3379,2227,-4418
1665258564173,3,-11,281,37,-429,1030,3379,2227,-4418
1665258564194,3,-11,281,37,-429,1030,3379,2227,-4418
1665258564196,3,-11,281,63,-403,1005,3379,2227,-4418
1665258564196,3,-11,281,63,-403,1005,3379,2227,-4418
1665258564196,6,-11,286,46,-437,1025,3379,2227,-4418
1665258564214,6,-11,286,42,-471,1024,3379,2227,-4418
1665258564216,6,-11,286,42,-471,1024,3379,2227,-4418
1665258564216,4,-15,286,43,-455,985,3438,2165,-4459
1665258564216,4,-15,286,43,-455,985,3438,2165,-4459
1665258564230,4,-15,286,76,-455,954,3438,2165,-4459
1665258564231,4,-15,286,76,-455,954,3438,2165,-4459
1665258564246,7,-8,284,74,-457,950,3438,2165,-4459
1665258564248,7,-8,284,74,-457,975,3438,2165,-4459
1665258564248,7,-8,284,73,-478,975,3438,2165,-4459
1665258564262,7,-15,283,69,-470,982,3438,2165,-4459
1665258564264,3,-15,283,69,-470,982,3438,2165,-4459
1665258564264,3,-15,283,70,-456,971,3438,2165,-4459
1665258564281,3,-15,283,70,-456,971,3438,2165,-4459
1665258564283,8,-9,282,94,-462,985,3438,2165,-4459
1665258564283,8,-9,282,94,-462,985,3438,2165,-4459
1665258564283,8,-9,282,73,-442,1035,3438,2165,-4459
1665258564302,8,-9,282,73,-438,1087,3438,2165,-4459
1665258564306,8,-13,285,46,-438,1087,3438,2165,-4459
1665258564307,8,-13,285,73,-432,1106,3438,2165,-4459
1665258564307,8,-13,285,73,-432,1106,3438,2165,-4459
1665258564330,11,-8,283,61,-377,1146,3438,2165,-4459
1665258564334,11,-8,283,61,-377,1146,3439,2161,-4396
1665258564334,11,-8,283,60,-368,1210,3439,2161,-4396
1665258564334,11,-8,283,60,-368,1210,3439,2161,-4396
1665258564334,8,-14,285,51,-365,1259,3439,2161,-4396
1665258564353,8,-14,285,58,-351,1294,3439,2161,-4396
1665258564355,8,-14,285,58,-351,1294,3439,2161,-4396
1665258564355,5,-21,288,71,-337,1317,3439,2161,-4396
1665258564355,5,-21,288,71,-337,1317,3439,2161,-4396
1665258564370,5,-21,288,93,-354,1331,3439,2161,-4396
1665258564372,5,-21,288,93,-354,1331,3439,2161,-4396
1665258564372,7,-23,288,81,-359,1330,3439,2161,-4396
1665258564393,7,-23,288,81,-359,1330,3439,2161,-4396
1665258564395,7,-23,288,66,-353,1339,3439,2161,-4396
1665258564395,7,-23,288,78,-368,1349,3439,2161,-4396
1665258564395,5,-30,288,78,-368,1349,3439,2161,-4396
1665258564395,5,-30,288,65,-345,1351,3439,2161,-4396
1665258564418,5,-30,288,65,-345,1351,3439,2161,-4396
1665258564421,6,-31,289,65,-331,1303,3439,2161,-4396
1665258564421,6,-31,289,65,-331,1303,3518,2052,-4329
1665258564421,6,-31,289,57,-336,1285,3518,2052,-4329
1665258564434,6,-31,289,57,-336,1290,3518,2052,-4329
1665258564436,9,-30,289,60,-357,1290,3518,2052,-4329
1665258564436,9,-30,289,54,-355,1317,3518,2052,-4329
1665258564450,9,-30,289,54,-355,1317,3518,2052,-4329
1665258564451,7,-37,292,42,-355,1340,3518,2052,-4329
1665258564451,7,-37,292,42,-355,1340,3518,2052,-4329
1665258564472,7,-37,292,80,-365,1363,3518,2052,-4329
1665258564475,7,-37,292,80,-365,1363,3518,2052,-4329
1665258564475,9,-38,290,78,-334,1360,3518,2052,-4329
1665258564475,9,-38,290,60,-312,1354,3518,2052,-4329
1665258564495,9,-38,290,60,-312,1354,3518,2052,-4329
1665258564497,6,-45,295,62,-323,1353,3518,2052,-4329
1665258564497,6,-45,295,62,-323,1353,3518,2052,-4329
1665258564497,6,-45,295,60,-330,1339,3518,2052,-4329
1665258564516,6,-45,295,60,-330,1339,3518,2052,-4329
1665258564517,6,-50,297,49,-323,1293,3518,2052,-4329
1665258564517,6,-50,297,49,-323,1293,3518,2052,-4329
1665258564517,6,-50,297,73,-356,1259,3557,1886,-4300
1665258564531,6,-50,297,65,-371,1255,3557,1886,-4300
1665258564533,8,-46,296,65,-371,1255,3557,1886,-4300
1665258564533,8,-46,296,29,-377,1283,3557,1886,-4300
1665258564548,8,-46,296,29,-377,1283,3557,1886,-4300
1665258564550,5,-55,297,52,-404,1335,3557,1886,-4300
1665258564550,5,-55,297,52,-404,1335,3557,1886,-4300
1665258564572,5,-55,297,83,-400,1355,3557,1886,-4300
1665258564573,5,-55,297,83,-400,1355,3557,1886,-4300
1665258564573,6,-56,297,55,-355,1196,3557,1886,-4300
1665258564573,6,-56,297,49,-349,1132,3557,1886,-4300
1665258564595,6,-56,297,49,-349,1132,3557,1886,-4300
1665258564596,8,-55,298,48,-422,1158,3557,1886,-4300
1665258564596,8,-55,298,48,-422,1158,3557,1886,-4300
1665258564596,8,-55,298,27,-448,1172,3557,1886,-4300
1665258564616,8,-55,298,27,-448,1172,3557,1886,-4300
1665258564618,5,-64,299,28,-421,1147,3557,1886,-4300
1665258564618,5,-64,299,28,-165,1097,3557,1886,-4300
1665258564618,5,-64,299,36,-388,1097,3558,1786,-4283
1665258564632,5,-62,300,20,-378,1067,3558,1786,-4283
1665258564633,6,-62,300,20,-378,1067,3558,1786,-4283
1665258564633,6,-62,300,32,-405,1038,3558,1786,-4283
1665258564651,6,-62,300,32,-405,1038,3558,1786,-4283
1665258564653,7,-59,300,47,-420,1049,3558,1786,-4283
1665258564653,7,-59,300,47,-420,1049,3558,1786,-4283
1665258564653,7,-59,300,37,-449,1054,3558,1786,-4283
1665258564674,7,-59,300,70,-476,1040,3558,1786,-4283
1665258564675,6,-67,299,70,-476,1040,3558,1786,-4283
1665258564675,6,-67,299,80,-444,1002,3558,1786,-4283
1665258564675,6,-67,299,80,-444,1002,3558,1786,-4283
1665258564703,8,-61,301,71,-435,996,3558,1786,-4283
1665258564706,8,-61,301,71,-435,996,3558,1786,-4283
1665258564706,8,-61,301,68,-451,1010,3558,1786,-4283
1665258564706,8,-61,301,68,-451,1010,3558,1786,-4283
1665258564706,9,-60,298,72,-441,1038,3558,1786,-4283
1665258564706,9,-60,298,73,-430,1061,3558,1786,-4283
1665258564727,9,-60,298,73,-430,1061,3558,1786,-4283
1665258564729,8,-65,300,62,-434,1067,3606,1730,-4256
1665258564729,8,-65,300,62,-434,1067,3606,1730,-4256
1665258564729,8,-65,300,82,-432,1065,3606,1730,-4256
1665258564747,8,-65,300,82,-432,1065,3606,1730,-4256
1665258564749,9,-65,301,67,-401,1077,3606,1730,-4256
1665258564749,9,-65,301,67,-401,1077,3606,1730,-4256
1665258564749,9,-65,301,75,-423,1085,3606,1730,-4256
1665258564772,9,-65,299,79,-415,1096,3606,1730,-4256
1665258564775,8,-65,299,79,-415,1096,3606,1730,-4256
1665258564776,8,-65,299,66,-400,1119,3606,1730,-4256
1665258564776,8,-65,299,66,-400,1119,3606,1730,-4256
1665258564798,9,-67,301,78,-412,1142,3606,1730,-4256
1665258564801,9,-67,301,78,-412,1142,3606,1730,-4256
1665258564801,9,-67,301,73,-389,1168,3606,1730,-4256
1665258564801,9,-67,301,73,-389,1193,3606,1730,-4256
1665258564801,8,-68,302,72,-373,1193,3606,1730,-4256
1665258564825,8,-68,302,63,-362,1218,3606,1730,-4256
1665258564826,8,-68,302,63,-362,1218,3606,1730,-4256
1665258564826,4,-76,305,60,-348,1206,3641,1651,-4190
1665258564826,4,-76,305,60,-348,1206,3641,1651,-4190
1665258564826,4,-76,305,67,-352,1183,3641,1651,-4190
1665258564842,4,-76,305,67,-352,1183,3641,1651,-4190
1665258564843,7,-75,305,76,-373,1177,3641,1651,-4190
1665258564843,7,-75,305,71,-388,1183,3641,1651,-4190
1665258564864,7,-75,305,71,-388,1183,3641,1651,-4190
1665258564869,5,-80,305,64,-398,1183,3641,1651,-4190
1665258564869,5,-80,305,64,-398,1183,3641,1651,-4190
1665258564869,5,-80,305,71,-407,1166,3641,1651,-4190
1665258564869,5,-80,305,71,-407,1166,3641,1651,-4190
1665258564890,5,-82,306,72,-387,1143,3641,1651,-4190
1665258564892,5,-82,306,72,-387,1143,3641,1651,-4190
1665258564892,5,-82,306,63,-383,1127,3641,1651,-4190
1665258564892,5,-82,306,69,-399,1122,3641,1651,-4190
1665258564914,4,-83,306,69,-399,1122,3641,1651,-4190
1665258564917,4,-83,306,71,-404,1108,3641,1651,-4190
1665258564917,4,-83,306,71,-404,1108,3641,1651,-4190
1665258564917,6,-82,308,69,-416,1090,3641,1651,-4190
1665258564930,6,-82,308,69,-416,1090,3641,1582,-4139
1665258564931,6,-82,308,75,-431,1084,3641,1582,-4139
1665258564931,6,-82,308,75,-431,1084,3641,1582,-4139
1665258564945,5,-82,308,57,-421,1083,3641,1582,-4139
1665258564947,5,-82,308,64,-422,1087,3641,1582,-4139
1665258564947,5,-82,308,64,-422,1087,3641,1582,-4139
1665258564961,4,-86,309,58,-408,1098,3641,1582,-4139
1665258564962,4,-86,309,58,-408,1098,3641,1582,-4139
1665258564962,4,-86,309,49,-390,1100,3641,1582,-4139
1665258564981,4,-86,309,49,-390,1100,3641,1582,-4139
1665258564983,4,-89,308,60,-387,1096,3641,1582,-4139
1665258564983,4,-89,308,60,-391,1074,3641,1582,-4139
1665258564983,4,-89,308,53,-391,1074,3641,1582,-4139
1665258565001,6,-85,309,63,-421,1069,3641,1582,-4139
1665258565003,6,-85,309,63,-421,1069,3641,1582,-4139
1665258565003,6,-85,309,71,-440,1083,3641,1582,-4139
1665258565022,6,-85,309,71,-440,1083,3641,1582,-4139
1665258565024,5,-88,308,60,-439,1116,3641,1582,-4139
1665258565024,5,-88,308,60,-439,1116,3666,1497,-4132
1665258565024,5,-88,308,52,-425,1135,3666,1497,-4132
1665258565035,5,-88,308,46,-397,1136,3666,1497,-4132
1665258565037,2,-94,310,46,-397,1136,3666,1497,-4132
1665258565049,2,-94,310,38,-364,1115,3666,1497,-4132
1665258565051,2,-94,310,38,-364,1115,3666,1497,-4132
1665258565051,1,-99,313,35,-366,1087,3666,1497,-4132
1665258565065,1,-99,313,35,-366,1087,3666,1497,-4132
1665258565066,1,-99,313,38,-396,1054,3666,1497,-4132
1665258565066,1,-99,313,38,-396,1054,3666,1497,-4132
1665258565083,4,-94,312,28,-436,1035,3666,1497,-4132
1665258565085,4,-94,312,42,-476,1038,3666,1497,-4132
1665258565085,4,-94,312,42,-476,1038,3666,1497,-4132
1665258565102,4,-91,308,59,-466,1088,3666,1497,-4132
1665258565105,4,-91,308,59,-466,1088,3666,1497,-4132
1665258565105,4,-91,308,43,-433,1122,3666,1497,-4132
1665258565106,4,-91,308,43,-433,1122,3666,1497,-4132
1665258565125,3,-97,309,62,-404,1142,3666,1497,-4132
1665258565126,3,-97,309,62,-404,1142,3666,1497,-4132
1665258565126,3,-97,309,66,-344,1149,3636,1455,-4115
1665258565126,3,-97,314,54,-331,1161,3636,1455,-4115
1665258565144,3,-99,314,54,-331,1161,3636,1455,-4115
1665258565145,3,-99,314,67,-383,1166,3636,1455,-4115
1665258565145,3,-99,314,67,-383,1166,3636,1455,-4115
1665258565169,2,-101,313,75,-401,1172,3636,1455,-4115
1665258565172,2,-101,313,75,-401,1172,3636,1455,-4115
1665258565173,2,-101,313,78,-407,1171,3636,1455,-4115
1665258565173,2,-101,313,78,-415,1171,3636,1455,-4115
1665258565173,1,-103,314,73,-415,1171,3636,1455,-4115
1665258565188,1,-103,314,68,-396,1165,3636,1455,-4115
1665258565190,1,-103,314,68,-396,1165,3636,1455,-4115
1665258565190,0,-108,316,74,-365,1147,3636,1455,-4115
1665258565190,0,-108,316,74,-365,1147,3636,1455,-4115
1665258565211,0,-108,316,61,-358,1134,3636,1455,-4115
1665258565212,0,-108,316,61,-358,1134,3636,1455,-4115
1665258565212,2,-105,316,72,-387,1126,3636,1455,-4115
1665258565213,2,-105,316,69,-400,1140,3636,1455,-4115
1665258565230,2,-105,316,69,-400,1140,3638,1325,-4093
1665258565234,-1,-109,316,70,-418,1152,3638,1325,-4093
1665258565234,-1,-109,316,70,-418,1152,3638,1325,-4093
1665258565234,-1,-109,316,76,-425,1147,3638,1325,-4093
1665258565257,-1,-109,316,76,-425,1147,3638,1325,-4093
1665258565259,0,-111,315,67,-395,1143,3638,1325,-4093
1665258565259,0,-111,315,67,-395,1143,3638,1325,-4093
1665258565259,0,-111,315,66,-380,1141,3638,1325,-4093
1665258565278,0,-111,315,67,-380,1152,3638,1325,-4093
1665258565280,0,-111,317,67,-380,1152,3638,1325,-4093
1665258565280,0,-111,317,60,-376,1168,3638,1325,-4093
1665258565280,0,-111,317,60,-376,1168,3638,1325,-4093
1665258565299,-3,-117,319,64,-379,1166,3638,1325,-4093
1665258565301,-3,-117,319,64,-379,1166,3638,1325,-4093
1665258565301,-3,-117,319,77,-390,1159,3638,1325,-4093
1665258565302,-3,-117,319,77,-390,1134,3638,1325,-4093
1665258565316,-1,-116,318,87,-413,1134,3638,1325,-4093
1665258565317,-1,-116,318,81,-422,1119,3638,1325,-4093
1665258565317,-1,-116,318,81,-422,1119,3638,1325,-4093
1665258565332,-1,-114,318,84,-430,1118,3656,1264,-4048
1665258565334,-1,-114,318,84,-430,1118,3656,1264,-4048
1665258565334,-1,-114,318,87,-431,1145,3656,1264,-4048
1665258565354,-1,-114,318,87,-431,1145,3656,1264,-4048
1665258565356,0,-114,318,76,-404,1180,3656,1264,-4048
1665258565356,0,-114,318,76,-379,1216,3656,1264,-4048
1665258565356,0,-114,318,78,-379,1216,3656,1264,-4048
1665258565381,-3,-121,318,66,-344,1249,3656,1264,-4048
1665258565383,-3,-121,318,66,-344,1249,3656,1264,-4048
1665258565383,-3,-121,318,64,-322,1257,3656,1264,-4048
1665258565383,-3,-121,318,64,-322,1257,3656,1264,-4048
1665258565384,-3,-122,321,71,-328,1252,3656,1264,-4048
1665258565396,-3,-122,321,71,-328,1252,3656,1264,-4048
1665258565398,-3,-122,321,66,-343,1260,3656,1264,-4048
1665258565398,-3,-122,321,63,-363,1258,3656,1264,-4048
1665258565414,-6,-127,323,63,-363,1258,3656,1264,-4048
1665258565416,-6,-127,323,79,-375,1241,3656,1264,-4048
1665258565416,-6,-127,323,79,-375,1241,3656,1264,-4048
1665258565431,-9,-134,325,67,-369,1212,3626,1157,-3997
1665258565433,-9,-134,325,67,-369,1212,3626,1157,-3997
1665258565433,-9,-134,325,59,-376,1175,3626,1157,-3997
1665258565452,-9,-134,325,59,-376,1175,3626,1157,-3997
1665258565454,-9,-135,324,70,-387,1123,3626,1157,-3997
1665258565454,-9,-135,324,68,-399,1083,3626,1157,-3997
1665258565454,-9,-135,324,68,-399,1083,3626,1157,-3997
1665258565480,-6,-132,325,65,-429,1070,3626,1157,-3997
1665258565482,-6,-132,325,65,-429,1070,3626,1157,-3997
1665258565482,-6,-132,325,76,-456,1062,3626,1157,-3997
1665258565482,-6,-132,325,76,-456,1062,3626,1157,-3997
1665258565482,-8,-134,325,68,-444,1053,3626,1157,-3997
1665258565495,-8,-134,325,68,-444,1040,3626,1157,-3997
1665258565497,-8,-134,325,75,-438,1040,3626,1157,-3997
1665258565497,-8,-131,323,76,-423,1058,3626,1157,-3997
1665258565513,-8,-131,323,76,-423,1058,3626,1157,-3997
1665258565514,-8,-131,323,60,-400,1079,3626,1157,-3997
1665258565515,-8,-131,323,60,-400,1079,3626,1157,-3997
1665258565530,-12,-141,327,57,-391,1077,3626,1157,-3997
1665258565531,-12,-141,327,57,-391,1077,3641,1087,-4000
1665258565531,-12,-141,327,44,-385,1037,3641,1087,-4000
1665258565551,-12,-141,327,44,-418,983,3641,1087,-4000
1665258565555,-12,-142,328,63,-418,983,3641,1087,-4000
1665258565555,-12,-142,328,74,-455,947,3641,1087,-4000
1665258565555,-12,-142,328,74,-455,947,3641,1087,-4000
1665258565555,-9,-137,327,63,-490,915,3641,1087,-4000
1665258565577,-9,-137,327,63,-490,915,3641,1087,-4000
1665258565581,-9,-137,327,70,-524,908,3641,1087,-4000
1665258565581,-9,-137,327,70,-524,908,3641,1087,-4000
1665258565581,-9,-137,323,65,-511,907,3641,1087,-4000
1665258565596,-9,-137,323,63,-485,907,3641,1087,-4000
1665258565597,-9,-137,323,63,-485,907,3641,1087,-4000
1665258565597,-8,-137,325,62,-453,919,3641,1087,-4000
1665258565613,-8,-137,325,62,-453,919,3641,1087,-4000
1665258565614,-8,-137,325,57,-436,929,3641,1087,-4000
1665258565614,-8,-137,325,57,-436,929,3641,1087,-4000
1665258565615,-9,-138,326,52,-443,939,3641,1087,-4000
1665258565630,-9,-138,326,52,-443,939,3662,1045,-3976
1665258565632,-9,-138,326,65,-464,943,3662,1045,-3976
1665258565632,-9,-138,326,73,-482,961,3662,1045,-3976
1665258565651,-9,-136,326,73,-482,961,3662,1045,-3976
1665258565653,-9,-136,326,47,-474,993,3662,1045,-3976
1665258565653,-9,-136,326,47,-474,993,3662,1045,-3976
1665258565653,-10,-141,324,63,-465,1016,3662,1045,-3976
1665258565677,-10,-141,324,63,-465,1016,3662,1045,-3976
1665258565682,-10,-141,324,68,-424,1011,3662,1045,-3976
1665258565682,-10,-141,324,68,-168,1045,3662,1045,-3976
1665258565682,-7,-134,325,69,-414,1045,3662,1045,-3976
1665258565682,-7,-134,325,62,-411,1099,3662,1045,-3976
1665258565699,-7,-134,325,62,-411,1099,3662,1045,-3976
1665258565701,-9,-139,327,52,-396,1144,3662,1045,-3976
1665258565702,-9,-139,327,52,-396,1144,3662,1045,-3976
1665258565702,-9,-139,327,60,-394,1164,3662,1045,-3976
1665258565724,-9,-139,327,60,-394,1164,3662,1045,-3976
1665258565726,-12,-144,327,52,-377,1173,3662,1045,-3976
1665258565726,-12,-144,327,61,-367,1170,3662,1045,-3976
1665258565726,-12,-144,327,61,-367,1170,3637,979,-3968
1665258565746,-13,-147,329,56,-365,1164,3637,979,-3968
1665258565748,-13,-147,329,56,-365,1164,3637,979,-3968
1665258565748,-13,-147,329,61,-384,1157,3637,979,-3968
1665258565748,-13,-147,329,61,-384,1157,3637,979,-3968
1665258565768,-13,-147,329,76,-396,1143,3637,979,-3968
1665258565773,-13,-147,329,76,-396,1143,3637,979,-3968
1665258565773,-13,-147,329,75,-406,1152,3637,979,-3968
1665258565773,-13,-147,329,88,-419,1174,3637,979,-3968
1665258565773,-13,-145,328,88,-419,1174,3637,979,-3968
1665258565795,-13,-145,328,79,-390,1207,3637,979,-3968
1665258565797,-13,-145,328,79,-390,1207,3637,979,-3968
1665258565797,-17,-153,330,70,-365,1235,3637,979,-3968
1665258565797,-17,-153,330,70,-365,1235,3637,979,-3968
1665258565816,-17,-153,330,74,-346,1226,3637,979,-3968
1665258565817,-17,-153,330,74,-346,1226,3637,979,-3968
1665258565817,-16,-152,333,71,-332,1205,3637,979,-3968
1665258565817,-16,-152,333,77,-356,1206,3637,979,-3968
1665258565837,-16,-152,333,77,-356,1206,3619,892,-3919
1665258565839,-17,-156,332,74,-383,1215,3619,892,-3919
1665258565840,-17,-156,332,74,-383,1215,3619,892,-3919
1665258565840,-17,-156,332,79,-400,1214,3619,892,-3919
1665258565859,-17,-156,332,79,-400,1214,3619,892,-3919
1665258565861,-21,-162,333,81,-395,1201,3619,892,-3919
1665258565861,-21,-162,333,81,-395,1166,3619,892,-3919
1665258565861,-21,-162,333,63,-375,1166,3619,892,-3919
1665258565879,-22,-165,335,58,-374,1112,3619,892,-3919
1665258565884,-22,-165,335,58,-374,1112,3619,892,-3919
1665258565884,-22,-165,335,63,-391,1062,3619,892,-3919
1665258565884,-22,-165,335,63,-391,1062,3619,892,-3919
1665258565897,-21,-161,336,72,-427,1026,3619,892,-3919
1665258565899,-21,-161,336,72,-427,1026,3619,892,-3919
1665258565899,-21,-161,336,79,-471,1006,3619,892,-3919
1665258565915,-21,-161,336,80,-496,985,3619,892,-3919
1665258565917,-21,-162,334,80,-496,985,3619,892,-3919
1665258565917,-21,-162,334,84,-494,973,3619,892,-3919
1665258565931,-21,-162,334,84,-494,973,3619,892,-3919
1665258565933,-20,-160,332,78,-470,975,3618,823,-3889
1665258565933,-20,-160,332,78,-470,975,3618,823,-3889
1665258565952,-20,-160,332,60,-443,991,3618,823,-3889
1665258565954,-20,-160,332,60,-443,991,3618,823,-3889
1665258565955,-19,-162,333,57,-422,1009,3618,823,-3889
1665258565955,-19,-162,333,65,-408,1020,3618,823,-3889
1665258565970,-19,-162,333,65,-408,1020,3618,823,-3889
1665258565972,-20,-159,334,66,-415,1056,3618,823,-3889
1665258565972,-20,-159,334,66,-415,1056,3618,823,-3889
1665258565986,-20,-159,334,61,-421,1084,3618,823,-3889
1665258565987,-20,-159,334,61,-421,1084,3618,823,-3889
1665258565988,-22,-166,335,66,-422,1093,3618,823,-3889
1665258566001,-22,-166,335,66,-422,1093,3618,823,-3889
1665258566003,-22,-166,335,67,-413,1091,3618,823,-3889
1665258566003,-22,-166,337,53,-403,1079,3618,823,-3889
1665258566027,-24,-168,337,53,-403,1079,3618,823,-3889
1665258566028,-24,-168,337,62,-405,1065,3618,823,-3889
1665258566028,-24,-168,337,62,-405,1065,3618,823,-3889
1665258566029,-24,-165,337,76,-417,1056,3591,779,-3862
1665258566029,-24,-165,337,76,-417,1056,3591,779,-3862
1665258566047,-24,-165,337,78,-434,1068,3591,779,-3862
1665258566050,-24,-165,337,78,-442,1090,3591,779,-3862
1665258566050,-23,-167,335,82,-442,1090,3591,779,-3862
1665258566050,-23,-167,335,82,-435,1102,3591,779,-3862
1665258566067,-23,-167,335,82,-435,1102,3591,779,-3862
1665258566070,-24,-167,335,79,-417,1112,3591,779,-3862
1665258566070,-24,-167,335,79,-417,1112,3591,779,-3862
1665258566083,-24,-167,335,86,-404,1128,3591,779,-3862
1665258566085,-24,-167,335,86,-404,1128,3591,779,-3862
1665258566085,-24,-169,337,61,-375,1150,3591,779,-3862
1665258566098,-24,-169,337,71,-385,1161,3591,779,-3862
1665258566100,-24,-169,337,71,-385,1161,3591,779,-3862
1665258566100,-26,-170,337,72,-383,1169,3591,779,-3862
1665258566122,-26,-170,337,72,-383,1169,3591,779,-3862
1665258566124,-26,-170,337,73,-384,1187,3591,779,-3862
1665258566124,-26,-170,337,73,-384,1187,3591,779,-3862
1665258566124,-28,-174,339,73,-391,1199,3591,779,-3862
1665258566146,-28,-174,339,73,-391,1199,3602,738,-3823
1665258566150,-28,-174,339,72,-385,1198,3602,738,-3823
1665258566150,-28,-174,339,70,-373,1174,3602,738,-3823
1665258566151,-31,-179,340,70,-373,1174,3602,738,-3823
1665258566151,-31,-179,340,68,-376,1155,3602,738,-3823
1665258566165,-31,-179,340,68,-376,1155,3602,738,-3823
1665258566167,-32,-180,341,65,-391,1144,3602,738,-3823
1665258566167,-32,-180,341,65,-391,1144,3602,738,-3823
1665258566182,-32,-180,341,58,-396,1126,3602,738,-3823
1665258566184,-32,-180,341,58,-396,1126,3602,738,-3823
1665258566184,-34,-182,341,79,-422,1097,3602,738,-3823
1665258566203,-34,-182,341,77,-429,1068,3602,738,-3823
1665258566205,-34,-182,341,77,-429,1068,3602,738,-3823
1665258566205,-32,-181,341,77,-440,1056,3602,738,-3823
1665258566205,-32,-181,341,77,-440,1056,3602,738,-3823
1665258566232,-32,-181,341,88,-451,1045,3602,738,-3823
1665258566235,-32,-181,341,88,-451,1045,3602,738,-3823
1665258566236,-32,-181,340,78,-444,1040,3602,738,-3823
1665258566236,-32,-181,340,78,-438,1045,3565,665,-3782
1665258566236,-32,-181,340,74,-438,1045,3565,665,-3782
1665258566236,-34,-182,341,70,-429,1051,3565,665,-3782
1665258566256,-34,-182,341,70,-429,1051,3565,665,-3782
1665258566257,-34,-182,341,68,-419,1052,3565,665,-3782
1665258566257,-34,-182,341,68,-419,1052,3565,665,-3782
1665258566257,-34,-183,342,70,-421,1051,3565,665,-3782
1665258566278,-34,-183,342,70,-421,1051,3565,665,-3782
1665258566279,-34,-183,342,69,-423,1049,3565,665,-3782
1665258566279,-34,-183,342,71,-427,1045,3565,665,-3782
1665258566279,-35,-183,343,71,-427,1045,3565,665,-3782
1665258566299,-35,-183,343,65,-434,1046,3565,665,-3782
1665258566301,-35,-183,343,65,-434,1046,3565,665,-3782
1665258566301,-36,-188,342,64,-432,1038,3565,665,-3782
1665258566301,-36,-188,342,64,-432,1038,3565,665,-3782
1665258566322,-36,-188,342,58,-425,1018,3565,665,-3782
1665258566324,-36,-188,342,58,-425,1018,3565,665,-3782
1665258566324,-37,-185,341,61,-432,1003,3565,665,-3782
1665258566324,-37,-185,341,59,-436,998,3565,665,-3782
1665258566336,-37,-185,341,59,-436,998,3539,619,-3805
1665258566338,-37,-188,344,59,-443,991,3539,619,-3805
1665258566338,-37,-188,344,59,-443,991,3539,619,-3805
1665258566352,-37,-188,344,66,-455,976,3539,619,-3805
1665258566354,-37,-188,344,66,-455,976,3539,619,-3805
1665258566354,-39,-189,345,63,-456,956,3539,619,-3805
1665258566376,-39,-189,345,63,-456,945,3539,619,-3805
1665258566378,-39,-189,345,68,-463,945,3539,619,-3805
1665258566378,-39,-186,344,79,-475,937,3539,619,-3805
1665258566378,-37,-186,344,79,-475,937,3539,619,-3805
1665258566398,-37,-186,344,69,-473,948,3539,619,-3805
1665258566400,-37,-186,344,69,-473,948,3539,619,-3805
1665258566400,-38,-186,342,73,-471,969,3539,619,-3805
1665258566400,-38,-186,342,73,-471,969,3539,619,-3805
1665258566422,-38,-186,342,66,-452,986,3539,619,-3805
1665258566424,-38,-186,342,66,-434,999,3539,619,-3805
1665258566424,-38,-189,343,51,-434,999,3539,619,-3805
1665258566424,-38,-189,343,57,-432,1000,3539,619,-3805
1665258566436,-38,-189,343,57,-432,1000,3510,576,-3808
1665258566438,-39,-188,344,50,-416,997,3510,576,-3808
1665258566438,-39,-188,344,50,-416,997,3510,576,-3808
1665258566452,-39,-188,344,62,-437,998,3510,576,-3808
1665258566454,-39,-188,344,62,-437,998,3510,576,-3808
1665258566454,-39,-188,343,59,-446,1016,3510,576,-3808
1665258566470,-39,-188,343,73,-452,1023,3510,576,-3808
1665258566472,-39,-188,343,73,-452,1023,3510,576,-3808
1665258566472,-40,-191,344,76,-449,1031,3510,576,-3808
1665258566493,-40,-191,344,76,-449,1031,3510,576,-3808
1665258566495,-40,-191,344,60,-429,1041,3510,576,-3808
1665258566495,-40,-191,344,60,-429,1041,3510,576,-3808
1665258566495,-40,-193,345,59,-422,1032,3510,576,-3808
1665258566495,-40,-193,345,59,-422,1032,3510,576,-3808
1665258566518,-40,-193,345,64,-418,1030,3510,576,-3808
1665258566519,-40,-193,345,71,-426,1029,3510,576,-3808
1665258566520,-41,-193,345,71,-426,1029,3510,576,-3808
1665258566520,-41,-193,345,71,-437,1038,3510,576,-3808
1665258566534,-41,-193,345,71,-437,1038,3510,576,-3797
1665258566536,-42,-195,345,76,-448,1052,3494,521,-3797
1665258566536,-42,-195,345,76,-448,1052,3494,521,-3797
1665258566552,-42,-195,345,67,-439,1052,3494,521,-3797
1665258566554,-42,-195,345,67,-439,1043,3494,521,-3797
1665258566554,-44,-196,344,68,-431,1043,3494,521,-3797
1665258566571,-44,-196,344,68,-421,1033,3494,521,-3797
1665258566573,-44,-196,344,68,-421,1033,3494,521,-3797
1665258566573,-45,-198,346,57,-411,1028,3494,521,-3797
1665258566573,-45,-198,346,57,-411,1028,3494,521,-3797
1665258566596,-45,-198,346,62,-430,1015,3494,521,-3797
1665258566598,-45,-198,346,62,-430,1015,3494,521,-3797
1665258566598,-45,-198,347,69,-446,1009,3494,521,-3797
1665258566598,-45,-198,347,69,-451,1004,3494,521,-3797
1665258566598,-45,-198,347,69,-451,1004,3494,521,-3797
1665258566618,-45,-198,347,74,-463,998,3494,521,-3797
1665258566621,-45,-198,347,74,-463,998,3494,521,-3797
1665258566621,-45,-198,347,67,-455,998,3494,521,-3797
1665258566621,-45,-198,347,67,-455,998,3494,521,-3797
1665258566632,-45,-197,347,71,-451,1013,3494,468,-3752
1665258566634,-45,-197,347,71,-451,1013,3494,468,-3752
1665258566647,-45,-197,347,61,-437,1025,3494,468,-3752
1665258566649,-45,-197,347,62,-431,1034,3494,468,-3752
1665258566649,-45,-198,346,62,-431,1034,3494,468,-3752
1665258566671,-45,-198,346,65,-428,1038,3494,468,-3752
1665258566673,-45,-198,346,65,-428,1038,3494,468,-3752
1665258566673,-46,-198,347,58,-419,1061,3494,468,-3752
1665258566673,-46,-198,347,58,-419,1061,3494,468,-3752
1665258566697,-46,-198,347,60,-425,1075,3494,468,-3752
1665258566701,-46,-198,347,60,-425,1075,3494,468,-3752
1665258566701,-47,-200,346,75,-421,1089,3494,468,-3752
1665258566701,-47,-200,346,75,-411,1103,3494,468,-3752
1665258566701,-47,-200,346,75,-411,1103,3494,468,-3752
1665258566722,-48,-200,349,74,-413,1119,3494,468,-3752
1665258566724,-48,-200,349,74,-413,1119,3494,468,-3752
1665258566724,-48,-200,349,81,-408,1134,3494,468,-3752
1665258566724,-48,-200,349,81,-408,1134,3494,468,-3752
1665258566724,-50,-203,348,73,-396,1150,3494,468,-3733
1665258566743,-50,-203,348,73,-396,1161,3460,412,-3733
1665258566744,-50,-203,348,78,-396,1161,3460,412,-3733
1665258566745,-50,-206,350,82,-396,1161,3460,412,-3733
1665258566767,-52,-206,350,82,-396,1161,3460,412,-3733
1665258566770,-52,-206,350,76,-388,1171,3460,412,-3733
1665258566770,-52,-206,350,76,-388,1171,3460,412,-3733
1665258566770,-50,-201,349,77,-392,1195,3460,412,-3733
1665258566770,-50,-201,349,77,-392,1195,3460,412,-3733
1665258566801,-50,-201,349,72,-385,1234,3460,412,-3733
1665258566803,-50,-201,349,60,-364,1256,3460,412,-3733
1665258566803,-55,-208,351,60,-364,1256,3460,412,-3733
1665258566803,-55,-208,351,64,-346,1253,3460,412,-3733
1665258566803,-55,-208,351,64,-346,1253,3460,412,-3733
1665258566803,-60,-215,353,63,-323,1238,3460,412,-3733
1665258566821,-60,-215,353,63,-323,1238,3460,412,-3733
1665258566822,-60,-215,353,53,-318,1202,3460,412,-3733
1665258566822,-60,-215,353,53,-318,1202,3460,412,-3733
1665258566822,-59,-213,353,63,-363,1157,3460,412,-3733
1665258566838,-59,-213,353,73,-404,1139,3427,343,-3684
1665258566841,-59,-213,353,73,-404,1139,3427,343,-3684
1665258566842,-61,-217,353,73,-430,1120,3427,343,-3684
1665258566863,-61,-217,353,73,-430,1120,3427,343,-3684
1665258566866,-61,-217,353,74,-449,1093,3427,343,-3684
1665258566866,-61,-217,353,74,-449,1093,3427,343,-3684
1665258566866,-62,-219,354,78,-446,1049,3427,343,-3684
1665258566866,-62,-219,354,78,-446,1049,3427,343,-3684
1665258566889,-62,-219,354,72,-436,1011,3427,343,-3684
1665258566891,-62,-219,354,65,-444,974,3427,343,-3684
1665258566891,-64,-221,354,65,-444,974,3427,343,-3684
1665258566891,-64,-221,354,62,-461,928,3427,343,-3684
1665258566912,-64,-221,354,62,-461,928,3427,343,-3684
1665258566914,-61,-216,354,70,-476,897,3427,343,-3684
1665258566914,-61,-216,354,70,-476,897,3427,343,-3684
1665258566914,-61,-216,354,67,-496,892,3427,343,-3684
1665258566914,-61,-216,354,67,-496,875,3427,343,-3684
1665258566933,-63,-219,354,60,-504,875,3427,343,-3684
1665258566934,-63,-219,354,66,-497,846,3427,266,-3669
1665258566934,-63,-219,354,66,-497,846,3408,266,-3669
1665258566948,-61,-216,354,56,-485,835,3408,266,-3669
1665258566950,-61,-216,354,56,-485,835,3408,266,-3669
1665258566950,-61,-216,354,59,-495,830,3408,266,-3669
1665258566963,-61,-216,354,59,-495,830,3408,266,-3669
1665258566965,-61,-214,352,63,-496,845,3408,266,-3669
1665258566965,-61,-214,352,60,-497,857,3408,266,-3669
1665258566984,-61,-214,352,60,-497,857,3408,266,-3669
1665258566986,-58,-212,353,71,-507,866,3408,266,-3669
1665258566986,-58,-212,353,71,-507,866,3408,266,-3669
1665258566986,-58,-212,353,80,-497,894,3408,266,-3669
1665258567006,-58,-212,353,80,-497,894,3408,266,-3669
1665258567008,-60,-214,352,64,-475,932,3408,266,-3669
1665258567008,-60,-214,352,64,-475,932,3408,266,-3669
1665258567008,-60,-214,352,56,-462,952,3408,266,-3669
1665258567028,-60,-214,352,64,-441,963,3408,266,-3669
1665258567030,-60,-214,352,64,-441,963,3408,266,-3669
1665258567030,-60,-214,352,56,-428,981,3408,266,-3669
1665258567030,-60,-214,352,56,-428,981,3389,285,-3706
1665258567045,-62,-216,353,57,-436,996,3389,285,-3706
1665258567048,-62,-216,353,57,-436,996,3389,285,-3706
1665258567048,-62,-216,353,75,-440,997,3389,285,-3706
1665258567064,-62,-216,353,75,-440,997,3389,285,-3706
1665258567066,-63,-216,354,67,-445,1005,3389,285,-3706
1665258567066,-63,-216,354,67,-458,1013,3389,285,-3706
1665258567066,-63,-216,354,67,-458,1013,3389,285,-3706
1665258567082,-63,-218,353,75,-443,1015,3389,285,-3706
1665258567084,-63,-218,353,75,-443,1015,3389,285,-3706
1665258567084,-63,-218,353,62,-432,1023,3389,285,-3706
1665258567106,-63,-218,353,62,-432,1023,3389,285,-3706
1665258567109,-65,-221,354,55,-432,1022,3389,285,-3706
1665258567109,-65,-221,354,55,-422,998,3389,285,-3706
1665258567109,-65,-221,354,61,-422,998,3389,285,-3706
1665258567130,-64,-219,356,61,-431,970,3389,285,-3706
1665258567133,-64,-219,356,61,-431,970,3389,285,-3706
1665258567134,-64,-219,356,83,-471,974,3389,285,-3706
1665258567134,-64,-219,356,83,-471,974,3392,235,-3644
1665258567134,-64,-216,355,80,-469,989,3392,235,-3644
1665258567150,-64,-216,355,80,-469,989,3392,235,-3644
1665258567153,-64,-216,355,74,-479,1022,3392,235,-3644
1665258567153,-64,-216,355,77,-463,1047,3392,235,-3644
1665258567153,-65,-219,352,77,-463,1047,3392,235,-3644
1665258567172,-65,-219,352,61,-410,1067,3392,235,-3644
1665258567174,-65,-219,352,61,-410,1067,3392,235,-3644
1665258567174,-70,-225,356,53,-391,1062,3392,235,-3644
1665258567194,-70,-225,356,53,-391,1062,3392,235,-3644
1665258567197,-70,-225,356,46,-388,1043,3392,235,-3644
1665258567197,-70,-225,356,46,-388,1043,3392,235,-3644
1665258567197,-69,-225,357,44,-401,1020,3392,235,-3644
1665258567198,-69,-225,357,66,-444,1002,3392,235,-3644
1665258567213,-69,-225,357,66,-444,1002,3392,235,-3644
1665258567214,-69,-222,356,79,-476,993,3392,235,-3644
1665258567214,-69,-222,356,79,-476,993,3392,235,-3644
1665258567229,-69,-222,356,78,-485,1001,3392,235,-3644
1665258567231,-69,-222,356,78,-485,1001,3392,235,-3644
1665258567231,-70,-224,356,67,-472,1015,3362,186,-3632
1665258567246,-70,-224,356,67,-472,1015,3362,186,-3632
1665258567249,-70,-224,356,63,-439,1012,3362,186,-3632
1665258567249,-70,-224,355,68,-416,1000,3362,186,-3632
1665258567265,-71,-225,355,68,-416,1000,3362,186,-3632
1665258567267,-71,-225,355,56,-417,1001,3362,186,-3632
1665258567267,-71,-225,355,56,-417,1001,3362,186,-3632
1665258567289,-72,-226,357,67,-441,996,3362,186,-3632
1665258567291,-72,-226,357,67,-441,996,3362,186,-3632
1665258567292,-72,-226,357,80,-457,996,3362,186,-3632
1665258567292,-72,-226,357,80,-471,1000,3362,186,-3632
1665258567292,-72,-227,356,70,-471,1000,3362,186,-3632
1665258567309,-72,-227,356,79,-484,995,3362,186,-3632
1665258567311,-72,-227,356,79,-484,995,3362,186,-3632
1665258567311,-73,-225,357,80,-456,1000,3362,186,-3632
1665258567311,-73,-225,357,80,-456,1000,3362,186,-3632
1665258567327,-73,-225,357,67,-443,1006,3362,186,-3632
1665258567328,-73,-225,357,67,-443,1006,3362,186,-3632
1665258567328,-73,-226,355,69,-437,1013,3345,166,-3651
1665258567344,-73,-226,355,70,-422,1021,3345,166,-3651
1665258567346,-73,-226,355,70,-422,1021,3345,166,-3651
1665258567346,-75,-228,357,67,-432,1023,3345,166,-3651
1665258567366,-75,-228,357,67,-432,1023,3345,166,-3651
1665258567368,-75,-228,357,69,-445,1026,3345,166,-3651
1665258567368,-75,-228,357,69,-445,1026,3345,166,-3651
1665258567368,-75,-231,358,68,-443,1015,3345,166,-3651
1665258567393,-75,-231,358,68,-443,1015,3345,166,-3651
1665258567398,-75,-231,358,67,-448,1009,3345,166,-3651
1665258567398,-75,-231,358,68,-451,1007,3345,166,-3651
1665258567398,-76,-228,357,68,-451,1007,3345,166,-3651
1665258567398,-76,-228,357,72,-443,1014,3345,166,-3651
1665258567398,-76,-228,357,72,-443,1014,3345,166,-3651
1665258567411,-74,-226,356,71,-436,1048,3345,166,-3651
1665258567413,-74,-226,356,71,-436,1048,3345,166,-3651
1665258567429,-74,-226,356,67,-426,1077,3345,166,-3651
1665258567430,-74,-226,356,67,-426,1086,3345,166,-3651
1665258567430,-78,-231,357,70,-411,1086,3345,166,-3651
1665258567430,-78,-231,357,70,-400,1093,3328,123,-3590
1665258567445,-78,-231,357,70,-400,1093,3328,123,-3590
1665258567447,-79,-233,358,61,-395,1096,3328,123,-3590
1665258567447,-79,-233,358,61,-395,1096,3328,123,-3590
1665258567464,-79,-233,358,61,-402,1089,3328,123,-3590
1665258567465,-79,-233,358,61,-402,1089,3328,123,-3590
1665258567465,-82,-237,360,65,-417,1067,3328,123,-3590
1665258567485,-82,-237,360,65,-427,1040,3328,123,-3590
1665258567486,-82,-237,360,64,-427,1040,3328,123,-3590
1665258567486,-83,-237,361,64,-441,1011,3328,123,-3590
1665258567487,-83,-237,361,64,-441,1011,3328,123,-3590
1665258567514,-83,-237,361,63,-451,989,3328,123,-3590
1665258567515,-83,-237,361,63,-451,989,3328,123,-3590
1665258567515,-83,-237,359,67,-461,967,3328,123,-3590
1665258567515,-83,-237,359,67,-461,967,3328,123,-3590
1665258567515,-83,-237,359,61,-464,948,3328,123,-3590
1665258567530,-83,-237,359,55,-466,916,3328,123,-3590
1665258567531,-85,-240,362,55,-466,916,3328,123,-3590
1665258567531,-85,-240,362,79,-483,861,3258,70,-3594
1665258567545,-85,-240,362,79,-483,861,3258,70,-3594
1665258567546,-83,-237,361,51,-498,836,3258,70,-3594
1665258567547,-83,-237,361,51,-498,836,3258,70,-3594
1665258567563,-83,-237,361,65,-528,820,3258,70,-3594
1665258567566,-83,-237,361,65,-528,820,3258,70,-3594
1665258567566,-80,-231,358,76,-513,828,3258,70,-3594
1665258567582,-80,-231,358,67,-517,862,3258,70,-3594
1665258567585,-80,-231,358,67,-517,862,3258,70,-3594
1665258567585,-79,-228,357,66,-503,906,3258,70,-3594
1665258567585,-79,-228,357,66,-503,906,3258,70,-3594
1665258567605,-79,-228,357,113,-475,946,3258,70,-3594
1665258567607,-79,-228,357,113,-475,946,3258,70,-3594
1665258567607,-81,-231,360,144,-483,976,3258,70,-3594
1665258567607,-81,-231,360,144,-483,1025,3258,70,-3594
1665258567628,-81,-231,360,82,-517,1025,3258,70,-3594
1665258567630,-81,-240,360,78,-531,1077,3258,70,-3594
1665258567631,-83,-240,360,78,-531,1077,3258,70,-3594
1665258567631,-83,-240,360,226,-479,1010,3258,70,-3594
1665258567645,-83,-240,360,226,-479,1010,3279,85,-3591
1665258567648,-84,-242,360,135,-487,1071,3279,85,-3591
1665258567648,-84,-242,360,135,-487,1071,3279,85,-3591
1665258567648,-84,-242,360,160,-545,1045,3279,85,-3591
1665258567662,-84,-242,360,57,-482,1111,3279,85,-3591
1665258567664,-86,-241,359,57,-482,1111,3279,85,-3591
1665258567681,-86,-241,359,233,-487,1024,3279,85,-3591
1665258567683,-86,-241,359,233,-487,1024,3279,85,-3591
1665258567683,-88,-242,363,158,-468,1023,3279,85,-3591
1665258567683,-88,-242,363,158,-468,1023,3279,85,-3591
1665258567701,-88,-242,363,159,-535,987,3279,85,-3591
1665258567703,-88,-242,363,159,-535,987,3279,85,-3591
1665258567703,-88,-239,361,-19,-525,1049,3279,85,-3591
1665258567703,-88,-239,361,3,-477,1076,3279,85,-3591
1665258567734,-88,-239,361,3,-477,1076,3279,85,-3591
1665258567737,-90,-246,361,172,-407,1019,3279,85,-3591
1665258567737,-90,-246,361,172,-407,1019,3279,85,-3591
1665258567738,-90,-246,361,102,-386,973,3279,85,-3591
1665258567738,-90,-246,361,102,-386,973,3269,52,-3597
1665258567738,-89,-236,364,150,-595,949,3269,52,-3597
1665258567757,-89,-236,364,150,-595,949,3269,52,-3597
1665258567758,-89,-236,364,128,-644,956,3269,52,-3597
1665258567758,-89,-236,358,133,-557,935,3269,52,-3597
1665258567758,-89,-239,358,133,-557,935,3269,52,-3597
1665258567776,-89,-239,358,88,-488,970,3269,52,-3597
1665258567778,-89,-239,358,88,-488,970,3269,52,-3597
1665258567778,-90,-237,361,160,-467,940,3269,52,-3597
1665258567796,-90,-237,361,160,-467,940,3269,52,-3597
1665258567798,-90,-237,361,94,-469,965,3269,52,-3597
1665258567798,-90,-237,361,94,-469,969,3269,52,-3597
1665258567798,-88,-240,361,128,-556,969,3269,52,-3597
1665258567821,-88,-240,361,154,-586,974,3269,52,-3597
1665258567823,-88,-240,361,154,-586,974,3269,52,-3597
1665258567823,-88,-238,367,155,-609,990,3269,52,-3597
1665258567823,-88,-238,367,155,-609,990,3269,52,-3597
1665258567823,-88,-238,367,161,-694,1009,3269,52,-3597
1665258567851,-88,-238,367,161,-694,1009,3269,52,-3597
1665258567855,-93,-244,358,155,-651,971,3263,27,-3598
1665258567855,-93,-244,358,94,-526,942,3263,27,-3598
1665258567855,-93,-244,358,94,-526,942,3263,27,-3598
1665258567855,-92,-245,364,97,-501,954,3263,27,-3598
1665258567855,-92,-245,364,97,-501,954,3263,27,-3598
1665258567870,-92,-245,364,128,-494,923,3263,27,-3598
1665258567871,-92,-245,364,128,-494,923,3263,27,-3598
1665258567872,-91,-241,363,115,-484,922,3263,27,-3598
1665258567884,-91,-241,363,115,-484,922,3263,27,-3598
1665258567887,-91,-241,363,115,-531,924,3263,27,-3598
1665258567903,-91,-241,363,55,-559,911,3263,27,-3598
1665258567905,-91,-236,361,55,-559,911,3263,27,-3598
1665258567905,-91,-236,361,120,-564,943,3263,27,-3598
1665258567905,-91,-236,361,120,-564,943,3263,27,-3598
1665258567922,-94,-244,363,105,-520,892,3263,27,-3598
1665258567924,-94,-244,363,105,-520,892,3263,27,-3598
1665258567924,-94,-244,363,96,-510,913,3263,27,-3598
1665258567939,-94,-244,363,96,-510,913,3263,27,-3598
1665258567941,-94,-245,363,78,-524,870,3222,40,-3591
1665258567941,-94,-245,363,65,-508,858,3222,40,-3591
1665258567962,-94,-245,363,65,-508,858,3222,40,-3591
1665258567964,-93,-244,362,66,-491,835,3222,40,-3591
1665258567964,-93,-244,362,66,-491,835,3222,40,-3591
1665258567964,-93,-244,362,57,-486,838,3222,40,-3591
1665258567964,-93,-244,362,57,-486,838,3222,40,-3591
1665258567978,-91,-241,361,72,-505,849,3222,40,-3591
1665258567980,-91,-241,361,72,-505,869,3222,40,-3591
1665258567980,-91,-241,361,75,-495,869,3222,40,-3591
1665258567994,-91,-239,362,88,-515,891,3222,40,-3591
1665258567996,-91,-239,362,88,-515,891,3222,40,-3591
1665258567996,-91,-239,362,94,-533,914,3222,40,-3591
1665258568023,-91,-239,362,94,-533,914,3222,40,-3591
1665258568024,-90,-239,360,75,-536,903,3222,40,-3591
1665258568024,-90,-239,360,75,-536,903,3222,40,-3591
1665258568024,-90,-239,360,73,-535,899,3222,40,-3591
1665258568024,-90,-239,360,107,-531,934,3222,40,-3591
1665258568045,-95,-247,357,107,-531,934,3222,40,-3591
1665258568048,-95,-247,357,104,-527,912,3241,4,-3622
1665258568048,-95,-247,357,104,-527,912,3241,4,-3622
1665258568048,-92,-245,362,90,-530,889,3241,4,-3622
1665258568062,-92,-245,362,90,-530,889,3241,4,-3622
1665258568064,-92,-245,362,36,-560,851,3241,4,-3622
1665258568064,-92,-245,362,36,-560,851,3241,4,-3622
1665258568078,-95,-245,357,140,-558,931,3241,4,-3622
1665258568080,-95,-245,357,72,-545,840,3241,4,-3622
1665258568081,-95,-245,357,72,-545,840,3241,4,-3622
1665258568100,-111,-250,357,95,-604,784,3241,4,-3622
1665258568102,-111,-250,357,95,-604,784,3241,4,-3622
1665258568102,-111,-250,357,-55,-626,601,3241,4,-3622
1665258568102,-111,-250,357,-55,-626,601,3241,4,-3622
1665258568122,-96,-246,354,160,-703,979,3241,4,-3622
1665258568124,-96,-246,354,160,-703,979,3241,4,-3622
1665258568124,-96,-246,354,97,-581,987,3241,4,-3622
1665258568124,-96,-246,364,87,-569,980,3241,4,-3622
1665258568142,-90,-244,364,87,-569,980,3241,4,-3622
1665258568144,-90,-244,364,144,-575,1033,3243,7,-3628
1665258568144,-90,-244,364,144,-575,1033,3243,7,-3628
1665258568144,-94,-244,363,123,-500,1036,3243,7,-3628
1665258568161,-94,-244,363,123,-500,1036,3243,7,-3628
1665258568163,-94,-244,363,106,-471,1033,3243,7,-3628
1665258568163,-94,-244,363,106,-500,1029,3243,7,-3628
1665258568178,-97,-247,363,108,-500,1029,3243,7,-3628
1665258568180,-97,-247,363,125,-540,982,3243,7,-3628
1665258568180,-97,-247,363,125,-540,982,3243,7,-3628
1665258568198,-92,-237,360,121,-593,937,3243,7,-3628
1665258568199,-92,-237,360,121,-593,937,3243,7,-3628
1665258568199,-92,-237,360,75,-626,975,3243,7,-3628
1665258568199,-92,-237,360,75,-626,975,3243,7,-3628
1665258568218,-90,-238,357,118,-604,1007,3243,7,-3628
1665258568220,-90,-238,357,166,-545,1132,3243,7,-3628
1665258568220,-90,-238,357,166,-545,1132,3243,7,-3628
1665258568220,-95,-240,361,167,-537,1104,3243,7,-3628
1665258568240,-95,-240,361,167,-537,1104,3243,7,-3628
1665258568241,-95,-240,361,128,-598,1114,3243,7,-3628
1665258568242,-95,-240,361,128,-598,1114,3218,-45,-3618
1665258568242,-100,-245,360,186,-598,1054,3218,-45,-3618
1665258568253,-100,-245,360,186,-598,1054,3218,-45,-3618
1665258568256,-100,-245,360,52,-520,1095,3218,-45,-3618
1665258568268,-100,-245,360,129,-529,1023,3218,-45,-3618
1665258568270,-102,-254,362,129,-529,1023,3218,-45,-3618
1665258568271,-102,-254,362,87,-483,1001,3218,-45,-3618
1665258568294,-102,-254,362,87,-483,1001,3218,-45,-3618
1665258568297,-101,-251,362,83,-474,966,3218,-45,-3618
1665258568297,-101,-251,362,83,-474,966,3218,-45,-3618
1665258568297,-101,-251,362,116,-499,939,3218,-45,-3618
1665258568297,-101,-251,362,116,-499,939,3218,-45,-3618
1665258568320,-98,-244,362,84,-499,949,3218,-45,-3618
1665258568324,-98,-244,362,40,-537,967,3218,-45,-3618
1665258568324,-98,-244,362,40,-537,967,3218,-45,-3618
1665258568324,-99,-241,352,97,-574,977,3218,-45,-3618
1665258568324,-99,-241,352,97,-574,977,3218,-45,-3618
1665258568341,-99,-241,352,118,-504,1031,3218,-45,-3618
1665258568343,-99,-241,352,118,-504,1031,3208,-72,-3633
1665258568343,-102,-250,358,57,-495,1060,3208,-72,-3633
1665258568361,-102,-250,358,57,-564,999,3208,-72,-3633
1665258568362,-102,-250,358,60,-564,999,3208,-72,-3633
1665258568362,-101,-248,361,54,-547,1047,3208,-72,-3633
1665258568363,-101,-248,361,54,-547,1047,3208,-72,-3633
1665258568378,-101,-248,361,121,-489,1077,3208,-72,-3633
1665258568379,-101,-248,361,121,-489,1077,3208,-72,-3633
1665258568380,-100,-247,373,89,-438,1095,3208,-72,-3633
1665258568401,-100,-247,373,89,-438,1095,3208,-72,-3633
1665258568403,-100,-247,373,16,-539,1101,3208,-72,-3633
1665258568403,-100,-247,373,78,-535,1046,3208,-72,-3633
1665258568403,-105,-247,355,78,-535,1046,3208,-72,-3633
1665258568430,-105,-247,355,97,-419,1121,3208,-72,-3633
1665258568432,-105,-247,355,97,-419,1121,3208,-72,-3633
1665258568432,-108,-257,360,106,-485,1090,3208,-72,-3633
1665258568432,-108,-257,360,106,-485,1090,3208,-72,-3633
1665258568432,-108,-257,360,56,-509,1018,3208,-72,-3633
1665258568432,-108,-257,360,56,-509,1018,3208,-72,-3633
1665258568445,-110,-265,362,9,-583,973,3218,-147,-3690
1665258568447,-110,-265,362,88,-530,925,3218,-147,-3690
1665258568461,-110,-265,362,88,-530,925,3218,-147,-3690
1665258568462,-108,-257,367,52,-440,939,3218,-147,-3690
1665258568462,-108,-257,367,52,-440,939,3218,-147,-3690
1665258568478,-108,-257,367,68,-528,920,3218,-147,-3690
1665258568480,-108,-257,367,68,-528,920,3218,-147,-3690
1665258568480,-105,-250,365,72,-449,915,3218,-147,-3690
1665258568497,-105,-250,365,72,-449,937,3218,-147,-3690
1665258568500,-105,-250,365,59,-488,937,3218,-147,-3690
1665258568500,-105,-251,361,95,-477,933,3218,-147,-3690
1665258568500,-107,-251,361,95,-477,933,3218,-147,-3690
1665258568525,-107,-251,361,87,-490,953,3218,-147,-3690
1665258568527,-107,-251,361,87,-490,953,3218,-147,-3690
1665258568527,-106,-250,358,91,-501,976,3218,-147,-3690
1665258568527,-106,-250,358,91,-501,976,3218,-147,-3690
1665258568527,-106,-250,358,89,-456,1009,3218,-147,-3690
1665258568542,-106,-250,358,-167,-478,1045,3218,-147,-3690
1665258568544,-105,-249,366,13,-478,1045,3208,-199,-3649
1665258568544,-105,-249,366,78,-567,1051,3208,-199,-3649
1665258568561,-105,-249,366,78,-567,1051,3208,-199,-3649
1665258568562,-113,-261,363,111,-419,1017,3208,-199,-3649
1665258568562,-113,-261,363,111,-419,1017,3208,-199,-3649
1665258568563,-113,-261,363,94,-489,1009,3208,-199,-3649
1665258568578,-113,-261,363,94,-489,1009,3208,-199,-3649
1665258568579,-114,-263,362,16,-507,955,3208,-199,-3649
1665258568579,-114,-263,362,84,-467,890,3208,-199,-3649
1665258568597,-114,-263,362,84,-467,890,3208,-199,-3649
1665258568599,-112,-258,368,69,-420,864,3208,-199,-3649
1665258568599,-112,-258,368,69,-420,864,3208,-199,-3649
1665258568599,-112,-258,368,54,-534,841,3208,-199,-3649
1665258568620,-112,-258,368,54,-534,841,3208,-199,-3649
1665258568623,-110,-258,362,39,-525,803,3208,-199,-3649
1665258568623,-110,-258,362,39,-525,803,3208,-199,-3649
1665258568623,-110,-258,362,47,-520,797,3208,-199,-3649
1665258568642,-110,-258,362,56,-482,800,3208,-199,-3649
1665258568644,-110,-256,361,56,-482,800,3208,-199,-3649
1665258568644,-110,-256,361,52,-480,805,3191,-159,-3622
1665258568644,-110,-256,361,52,-480,805,3191,-159,-3622
1665258568662,-109,-253,361,52,-517,810,3191,-159,-3622
1665258568663,-109,-253,361,52,-517,810,3191,-159,-3622
1665258568663,-109,-253,361,57,-513,837,3191,-159,-3622
1665258568678,-109,-253,361,57,-513,863,3191,-159,-3622
1665258568679,-109,-253,359,66,-499,863,3191,-159,-3622
1665258568679,-109,-253,359,74,-475,881,3191,-159,-3622
1665258568702,-109,-253,359,74,-475,881,3191,-159,-3622
1665258568704,-111,-256,362,77,-491,885,3191,-159,-3622
1665258568704,-111,-256,362,77,-491,885,3191,-159,-3622
1665258568704,-111,-256,362,71,-489,886,3191,-159,-3622
1665258568705,-111,-256,362,71,-489,886,3191,-159,-3622
1665258568733,-110,-254,360,76,-490,888,3191,-159,-3622
1665258568735,-110,-254,360,75,-483,904,3191,-159,-3622
1665258568735,-110,-254,360,75,-483,904,3191,-159,-3622
1665258568735,-110,-256,362,82,-473,896,3191,-159,-3622
1665258568735,-110,-256,362,82,-473,896,3191,-159,-3622
1665258568758,-110,-256,362,81,-500,897,3222,-201,-3635
1665258568759,-110,-256,362,81,-500,897,3222,-201,-3635
1665258568759,-111,-257,362,75,-479,899,3222,-201,-3635
1665258568759,-111,-257,362,75,-479,899,3222,-201,-3635
1665258568760,-111,-257,362,76,-486,896,3222,-201,-3635
1665258568776,-111,-257,362,62,-480,893,3222,-201,-3635
1665258568778,-111,-255,362,62,-480,893,3222,-201,-3635
1665258568778,-111,-255,362,75,-483,884,3222,-201,-3635
1665258568779,-111,-255,362,75,-483,884,3222,-201,-3635
1665258568798,-113,-260,363,62,-483,858,3222,-201,-3635
1665258568802,-113,-260,363,62,-483,858,3222,-201,-3635
1665258568802,-113,-260,363,55,-508,832,3222,-201,-3635
1665258568802,-113,-260,363,55,-508,832,3222,-201,-3635
1665258568833,-111,-257,362,51,-497,823,3222,-201,-3635
1665258568835,-111,-257,362,59,-508,823,3222,-201,-3635
1665258568835,-111,-257,362,59,-508,823,3222,-201,-3635
1665258568835,-110,-254,361,64,-496,842,3222,-201,-3635
1665258568835,-110,-254,361,64,-496,842,3222,-201,-3635
1665258568836,-110,-254,361,67,-490,871,3222,-201,-3635
1665258568855,-110,-254,361,67,-490,871,3184,-209,-3663
1665258568857,-111,-256,363,76,-492,883,3184,-209,-3663
1665258568857,-111,-256,363,76,-492,886,3184,-209,-3663
1665258568857,-111,-256,363,73,-494,886,3184,-209,-3663
1665258568874,-111,-255,361,73,-492,877,3184,-209,-3663
1665258568876,-110,-255,361,73,-492,877,3184,-209,-3663
1665258568876,-110,-255,361,80,-489,887,3184,-209,-3663
1665258568895,-110,-255,361,80,-489,887,3184,-209,-3663
1665258568897,-111,-255,361,76,-478,908,3184,-209,-3663
1665258568897,-111,-255,361,76,-478,908,3184,-209,-3663
1665258568897,-111,-255,361,84,-487,925,3184,-209,-3663
1665258568916,-111,-255,361,84,-474,928,3184,-209,-3663
1665258568917,-112,-257,363,84,-474,928,3184,-209,-3663
1665258568917,-112,-257,363,83,-483,927,3184,-209,-3663
1665258568917,-112,-257,363,83,-483,927,3184,-209,-3663
1665258568939,-111,-256,362,78,-474,931,3184,-209,-3663
1665258568942,-111,-256,362,78,-474,931,3184,-209,-3663
1665258568942,-111,-256,362,78,-472,944,3184,-209,-3663
1665258568942,-111,-256,362,78,-472,944,3185,-192,-3693
1665258568943,-112,-255,360,88,-463,954,3185,-192,-3693
1665258568959,-112,-255,360,92,-462,968,3185,-192,-3693
1665258568961,-112,-255,360,92,-462,968,3185,-192,-3693
1665258568961,-111,-256,368,61,-448,957,3185,-192,-3693
1665258568977,-111,-256,368,61,-448,957,3185,-192,-3693
1665258568979,-111,-256,368,70,-460,968,3185,-192,-3693
1665258568979,-111,-256,368,70,-460,968,3185,-192,-3693
1665258568995,-115,-264,369,98,-439,923,3185,-192,-3693
1665258568996,-115,-264,369,98,-439,923,3185,-192,-3693
1665258568996,-115,-264,369,76,-499,890,3185,-192,-3693
1665258569014,-115,-264,369,36,-496,864,3185,-192,-3693
1665258569016,-113,-258,369,36,-496,864,3185,-192,-3693
1665258569016,-113,-258,369,52,-498,851,3185,-192,-3693
1665258569016,-113,-258,369,52,-498,851,3185,-192,-3693
1665258569037,-113,-256,362,69,-466,836,3185,-192,-3693
1665258569040,-113,-256,362,69,-466,836,3185,-192,-3693
1665258569040,-113,-256,362,70,-485,847,3185,-192,-3693
1665258569040,-113,-256,362,70,-513,854,3185,-192,-3693
1665258569040,-114,-258,363,56,-513,854,3191,-202,-3663
1665258569059,-114,-258,363,60,-512,851,3191,-202,-3663
1665258569060,-114,-258,363,60,-512,851,3191,-202,-3663
1665258569060,-114,-255,362,75,-496,865,3191,-202,-3663
1665258569077,-114,-255,362,75,-496,865,3191,-202,-3663
1665258569078,-114,-255,362,81,-472,887,3191,-202,-3663
1665258569078,-114,-255,362,81,-472,887,3191,-202,-3663
1665258569078,-114,-258,364,77,-487,905,3191,-202,-3663
1665258569095,-114,-258,364,73,-496,912,3191,-202,-3663
1665258569097,-114,-258,364,73,-496,912,3191,-202,-3663
1665258569097,-116,-259,359,79,-481,911,3191,-202,-3663
1665258569114,-116,-259,359,79,-481,911,3191,-202,-3663
1665258569116,-116,-259,359,54,-465,917,3191,-202,-3663
1665258569116,-116,-259,359,54,-465,917,3191,-202,-3663
1665258569116,-114,-257,363,94,-474,906,3191,-202,-3663
1665258569135,-114,-257,363,94,-474,906,3191,-202,-3663
1665258569139,-114,-257,363,74,-468,910,3191,-202,-3663
1665258569139,-114,-257,363,70,-514,903,3191,-202,-3663
1665258569139,-115,-259,362,70,-514,903,3177,-211,-3624
1665258569159,-115,-259,362,77,-486,899,3177,-211,-3624
1665258569160,-115,-259,362,77,-486,899,3177,-211,-3624
1665258569160,-116,-258,365,80,-475,896,3177,-211,-3624
1665258569160,-116,-258,365,80,-475,896,3177,-211,-3624
1665258569177,-116,-258,365,80,-482,893,3177,-211,-3624
1665258569179,-116,-258,365,80,-482,893,3177,-211,-3624
1665258569179,-116,-261,364,77,-489,898,3177,-211,-3624
1665258569204,-116,-261,364,69,-491,892,3177,-211,-3624
1665258569206,-116,-261,364,69,-491,892,3177,-211,-3624
1665258569206,-117,-262,365,68,-492,868,3177,-211,-3624
1665258569206,-117,-262,365,68,-492,868,3177,-211,-3624
1665258569206,-117,-262,365,62,-491,850,3177,-211,-3624
1665258569228,-117,-262,365,62,-491,850,3177,-211,-3624
1665258569231,-116,-258,362,70,-500,852,3177,-211,-3624
1665258569231,-116,-258,362,70,-482,878,3177,-211,-3624
1665258569231,-116,-258,362,67,-482,878,3177,-211,-3624
1665258569231,-116,-257,362,74,-493,897,3177,-211,-3624
1665258569246,-116,-257,362,74,-493,897,3177,-211,-3624
1665258569248,-116,-257,362,80,-483,905,3163,-223,-3657
1665258569248,-116,-257,362,80,-483,905,3163,-223,-3657
1665258569262,-118,-262,364,77,-486,907,3163,-223,-3657
1665258569265,-118,-262,364,77,-486,907,3163,-223,-3657
1665258569265,-118,-262,364,70,-488,897,3163,-223,-3657
1665258569283,-118,-262,364,75,-484,880,3163,-223,-3657
1665258569285,-117,-260,364,75,-484,880,3163,-223,-3657
1665258569285,-117,-260,364,67,-493,879,3163,-223,-3657
1665258569285,-117,-260,364,67,-493,879,3163,-223,-3657
1665258569311,-116,-260,364,66,-492,880,3163,-223,-3657
1665258569313,-116,-260,364,66,-492,880,3163,-223,-3657
1665258569314,-116,-260,364,72,-486,880,3163,-223,-3657
1665258569314,-116,-260,364,72,-486,880,3163,-223,-3657
1665258569314,-116,-257,362,76,-492,895,3163,-223,-3657
1665258569326,-116,-257,362,80,-479,914,3163,-223,-3657
1665258569328,-116,-257,362,80,-479,914,3163,-223,-3657
1665258569328,-117,-259,366,81,-486,922,3163,-223,-3657
1665258569344,-117,-259,366,81,-486,922,3163,-223,-3657
1665258569345,-117,-259,366,83,-486,919,3177,-242,-3689
1665258569345,-117,-259,366,83,-486,919,3177,-242,-3689
1665258569362,-120,-264,367,79,-476,902,3177,-242,-3689
1665258569364,-120,-264,367,79,-476,902,3177,-242,-3689
1665258569364,-120,-264,367,62,-497,879,3177,-242,-3689
1665258569382,-120,-264,366,65,-493,858,3177,-242,-3689
1665258569384,-119,-261,366,65,-493,858,3177,-242,-3689
1665258569384,-119,-261,366,66,-486,847,3177,-242,-3689
1665258569384,-119,-261,366,66,-486,847,3177,-242,-3689
1665258569414,-117,-260,363,62,-501,849,3177,-242,-3689
1665258569415,-117,-260,363,62,-501,849,3177,-242,-3689
1665258569415,-117,-260,363,64,-501,853,3177,-242,-3689
1665258569415,-117,-260,363,64,-496,868,3177,-242,-3689
1665258569415,-118,-259,363,65,-496,868,3177,-242,-3689
1665258569415,-118,-259,363,74,-491,868,3177,-242,-3689
1665258569430,-118,-259,363,74,-491,868,3177,-242,-3689
1665258569431,-118,-262,363,69,-495,871,3177,-242,-3689
1665258569444,-118,-262,363,69,-495,871,3177,-242,-3689
1665258569446,-118,-262,363,63,-487,869,3177,-242,-3689
1665258569446,-118,-262,363,63,-487,869,3148,-238,-3687
1665258569461,-119,-261,365,65,-499,858,3148,-238,-3687
1665258569462,-119,-261,365,64,-500,855,3148,-238,-3687
1665258569462,-119,-261,365,64,-500,855,3148,-238,-3687
1665258569487,-119,-261,365,76,-490,854,3148,-238,-3687
1665258569489,-119,-261,365,76,-490,854,3148,-238,-3687
1665258569489,-119,-261,365,66,-494,853,3148,-238,-3687
1665258569489,-119,-261,365,66,-494,853,3148,-238,-3687
1665258569489,-119,-260,366,63,-501,849,3148,-238,-3687
1665258569512,-119,-260,366,63,-501,849,3148,-238,-3687
1665258569515,-119,-260,366,59,-500,842,3148,-238,-3687
1665258569515,-119,-260,366,58,-501,832,3148,-238,-3687
1665258569515,-118,-261,364,58,-501,832,3148,-238,-3687
1665258569515,-118,-261,364,61,-497,829,3148,-238,-3687
1665258569529,-118,-261,364,61,-497,829,3148,-238,-3687
1665258569531,-118,-259,364,62,-500,840,3148,-238,-3687
1665258569531,-118,-259,364,62,-500,840,3148,-238,-3687
1665258569546,-118,-259,364,66,-502,850,3148,-238,-3687
1665258569548,-118,-259,364,66,-502,868,3176,-253,-3684
1665258569548,-118,-259,365,69,-497,868,3176,-253,-3684
1665258569563,-118,-259,365,70,-488,873,3176,-253,-3684
1665258569565,-118,-259,365,70,-488,873,3176,-253,-3684
1665258569565,-119,-262,365,72,-496,863,3176,-253,-3684
1665258569584,-119,-262,365,72,-496,863,3176,-253,-3684
1665258569586,-119,-262,365,67,-493,858,3176,-253,-3684
1665258569586,-119,-262,365,67,-493,858,3176,-253,-3684
1665258569586,-119,-261,366,65,-497,852,3176,-253,-3684
1665258569611,-119,-261,366,65,-500,853,3176,-253,-3684
1665258569613,-119,-261,366,62,-500,853,3176,-253,-3684
1665258569613,-118,-260,365,68,-489,868,3176,-253,-3684
1665258569613,-118,-260,365,68,-489,868,3176,-253,-3684
1665258569613,-118,-260,365,71,-492,875,3176,-253,-3684
1665258569627,-118,-260,365,71,-492,875,3176,-253,-3684
1665258569629,-119,-261,364,70,-493,888,3176,-253,-3684
1665258569629,-119,-261,364,70,-493,888,3176,-253,-3684
1665258569644,-119,-261,364,74,-475,889,3176,-253,-3684
1665258569646,-119,-261,364,72,-496,884,3176,-253,-3684
1665258569646,-118,-260,363,72,-496,884,3200,-270,-3669
1665258569661,-118,-260,363,78,-487,884,3200,-270,-3669
1665258569663,-118,-260,363,78,-487,884,3200,-270,-3669
1665258569663,-119,-262,366,69,-490,888,3200,-270,-3669
1665258569688,-119,-262,366,69,-490,888,3200,-270,-3669
1665258569690,-119,-262,366,71,-492,876,3200,-270,-3669
1665258569690,-119,-262,366,71,-492,876,3200,-270,-3669
1665258569690,-120,-263,367,65,-488,857,3200,-270,-3669
1665258569690,-120,-263,367,56,-497,840,3200,-270,-3669
1665258569711,-120,-263,367,56,-497,840,3200,-270,-3669
1665258569712,-119,-262,366,60,-505,817,3200,-270,-3669
1665258569712,-119,-262,366,60,-505,817,3200,-270,-3669
1665258569712,-119,-262,366,51,-506,819,3200,-270,-3669
1665258569734,-119,-262,366,51,-506,819,3200,-270,-3669
1665258569735,-118,-259,364,55,-498,827,3200,-270,-3669
1665258569735,-118,-259,364,55,-498,837,3200,-270,-3669
1665258569735,-118,-259,364,60,-499,837,3200,-270,-3669
1665258569751,-118,-260,365,63,-494,849,3200,-270,-3669
1665258569753,-119,-260,365,63,-494,849,3156,-260,-3665
1665258569753,-119,-260,365,65,-496,853,3156,-260,-3665
1665258569753,-119,-260,365,65,-496,853,3156,-260,-3665
1665258569774,-118,-259,364,62,-499,852,3156,-260,-3665
1665258569776,-118,-259,364,62,-499,852,3156,-260,-3665
1665258569777,-118,-259,364,66,-492,855,3156,-260,-3665
1665258569777,-118,-259,364,63,-491,859,3156,-260,-3665
1665258569795,-119,-260,364,63,-491,859,3156,-260,-3665
1665258569797,-119,-260,364,67,-498,857,3156,-260,-3665
1665258569797,-119,-260,364,67,-498,857,3156,-260,-3665
1665258569797,-118,-260,364,67,-497,862,3156,-260,-3665
1665258569816,-118,-260,364,67,-497,862,3156,-260,-3665
1665258569819,-118,-260,364,69,-494,866,3156,-260,-3665
1665258569819,-118,-260,364,69,-494,866,3156,-260,-3665
1665258569819,-118,-259,363,74,-497,874,3156,-260,-3665
1665258569840,-118,-259,363,71,-483,887,3156,-260,-3665
1665258569842,-118,-259,363,71,-483,887,3156,-260,-3665
1665258569842,-121,-262,367,77,-487,886,3156,-260,-3665
1665258569842,-121,-262,367,77,-487,886,3156,-260,-3665
1665258569863,-121,-262,367,72,-485,879,3164,-259,-3698
1665258569865,-121,-262,367,72,-485,879,3164,-259,-3698
1665258569865,-120,-262,365,70,-499,864,3164,-259,-3698
1665258569865,-120,-262,365,70,-499,864,3164,-259,-3698
1665258569891,-120,-262,365,65,-494,865,3164,-259,-3698
1665258569893,-120,-262,364,62,-486,871,3164,-259,-3698
1665258569893,-118,-259,364,62,-486,871,3164,-259,-3698
1665258569893,-118,-259,364,70,-492,878,3164,-259,-3698
1665258569893,-118,-259,364,70,-492,878,3164,-259,-3698
1665258569914,-118,-259,364,76,-483,885,3164,-259,-3698
1665258569916,-118,-259,364,76,-483,885,3164,-259,-3698
1665258569916,-118,-259,364,77,-492,891,3164,-259,-3698
1665258569916,-118,-259,364,77,-492,893,3164,-259,-3698
1665258569916,-120,-261,365,69,-494,893,3164,-259,-3698
1665258569940,-120,-261,365,75,-484,891,3164,-259,-3698
1665258569942,-120,-261,365,75,-484,891,3164,-259,-3698
1665258569942,-121,-263,365,75,-482,886,3164,-259,-3698
1665258569943,-121,-263,365,75,-482,886,3164,-259,-3698
1665258569959,-121,-263,365,69,-489,877,3185,-275,-3632
1665258569961,-121,-263,365,69,-489,877,3185,-275,-3632
1665258569961,-121,-262,367,67,-500,859,3185,-275,-3632
1665258569961,-121,-262,367,56,-493,850,3185,-275,-3632
1665258569977,-121,-262,367,56,-493,850,3185,-275,-3632
1665258569979,-119,-259,364,67,-494,843,3185,-275,-3632
1665258569979,-119,-259,364,67,-494,843,3185,-275,-3632
1665258570001,-119,-259,364,61,-491,857,3185,-275,-3632
1665258570003,-119,-259,364,61,-491,857,3185,-275,-3632
1665258570003,-120,-261,365,65,-496,858,3185,-275,-3632
1665258570003,-120,-261,365,65,-496,858,3185,-275,-3632
1665258570023,-120,-261,365,66,-498,859,3185,-275,-3632
1665258570024,-120,-261,365,66,-491,866,3185,-275,-3632
1665258570025,-120,-260,364,66,-491,866,3185,-275,-3632
1665258570025,-120,-260,364,72,-489,863,3185,-275,-3632
1665258570042,-120,-260,364,72,-489,863,3185,-275,-3632
1665258570044,-120,-262,365,65,-494,861,3185,-275,-3632
1665258570044,-120,-262,365,65,-494,861,3185,-275,-3632
1665258570044,-120,-262,365,68,-500,857,3185,-275,-3632
1665258570061,-120,-262,365,68,-500,857,3192,-263,-3658
1665258570062,-120,-260,366,67,-492,868,3192,-263,-3658
1665258570062,-120,-260,366,72,-490,880,3192,-263,-3658
1665258570081,-120,-260,366,72,-490,880,3192,-263,-3658
1665258570083,-119,-261,366,77,-485,894,3192,-263,-3658
1665258570083,-119,-261,366,77,-485,894,3192,-263,-3658
1665258570083,-119,-261,366,72,-488,910,3192,-263,-3658
1665258570103,-119,-261,366,72,-488,910,3192,-263,-3658
1665258570105,-121,-261,367,83,-480,907,3192,-263,-3658
1665258570105,-121,-261,367,83,-487,910,3192,-263,-3658
1665258570105,-121,-261,367,69,-487,910,3192,-263,-3658
1665258570125,-122,-264,367,69,-481,897,3192,-263,-3658
1665258570127,-122,-264,367,69,-481,897,3192,-263,-3658
1665258570127,-122,-264,367,64,-488,885,3192,-263,-3658
1665258570127,-122,-264,367,64,-488,885,3192,-263,-3658
1665258570144,-123,-264,365,62,-492,865,3192,-263,-3658
1665258570146,-123,-264,365,62,-492,865,3192,-263,-3658
1665258570146,-123,-264,365,68,-496,842,3192,-263,-3658
1665258570146,-123,-264,365,55,-494,837,3171,-266,-3610
1665258570161,-121,-263,367,55,-494,837,3171,-266,-3610
1665258570163,-121,-263,367,54,-505,823,3171,-266,-3610
1665258570163,-121,-263,367,54,-505,823,3171,-266,-3610
1665258570182,-121,-261,365,56,-506,823,3171,-266,-3610
1665258570183,-121,-261,365,56,-506,823,3171,-266,-3610
1665258570184,-121,-261,365,59,-498,831,3171,-266,-3610
1665258570184,-121,-261,365,59,-498,831,3171,-266,-3610
1665258570205,-120,-261,364,67,-504,843,3171,-266,-3610
1665258570207,-120,-261,364,66,-489,864,3171,-266,-3610
1665258570207,-120,-261,364,66,-489,864,3171,-266,-3610
1665258570207,-121,-261,364,71,-492,881,3171,-266,-3610
1665258570230,-121,-261,364,71,-492,881,3171,-266,-3610
1665258570234,-121,-261,364,72,-486,889,3171,-266,-3610
1665258570234,-121,-261,364,72,-486,889,3171,-266,-3610
1665258570234,-121,-261,365,75,-489,891,3171,-266,-3610
1665258570234,-121,-261,365,75,-489,891,3171,-266,-3610
1665258570254,-121,-261,365,76,-486,895,3171,-266,-3610
1665258570256,-121,-261,365,69,-480,900,3171,-266,-3610
1665258570256,-122,-262,365,69,-480,900,3167,-291,-3617
1665258570256,-122,-262,365,76,-487,896,3167,-291,-3617
1665258570271,-122,-262,365,76,-487,896,3167,-291,-3617
1665258570273,-122,-262,365,71,-483,898,3167,-291,-3617
1665258570273,-122,-262,365,71,-483,898,3167,-291,-3617
1665258570295,-122,-262,365,73,-484,893,3167,-291,-3617
1665258570297,-122,-262,365,73,-488,890,3167,-291,-3617
1665258570297,-121,-262,366,73,-488,890,3167,-291,-3617
1665258570297,-121,-262,366,65,-488,892,3167,-291,-3617
1665258570297,-121,-262,366,65,-488,892,3167,-291,-3617
1665258570317,-124,-268,366,70,-475,875,3167,-291,-3617
1665258570319,-124,-268,366,70,-475,875,3167,-291,-3617
1665258570319,-124,-268,366,-20,-459,855,3167,-291,-3617
1665258570319,-124,-268,366,-20,-459,855,3167,-291,-3617
1665258570331,-122,-258,353,67,-591,817,3167,-291,-3617
1665258570333,-122,-258,353,48,-412,835,3167,-291,-3617
1665258570348,-122,-258,353,48,-412,835,3167,-291,-3617
1665258570350,-122,-263,365,62,-543,832,3167,-291,-3617
1665258570350,-122,-263,365,62,-543,832,3182,-257,-3627
1665258570367,-122,-263,365,58,-517,839,3182,-257,-3627
1665258570369,-122,-263,365,58,-517,839,3182,-257,-3627
1665258570369,-121,-258,365,64,-491,853,3182,-257,-3627
1665258570369,-121,-258,365,64,-491,853,3182,-257,-3627
1665258570391,-121,-258,365,80,-487,865,3182,-257,-3627
1665258570393,-121,-258,365,74,-474,886,3182,-257,-3627
1665258570394,-121,-263,366,74,-474,886,3182,-257,-3627
1665258570394,-121,-263,366,65,-510,883,3182,-257,-3627
1665258570409,-121,-263,366,65,-510,883,3182,-257,-3627
1665258570410,-124,-266,368,58,-499,857,3182,-257,-3627
1665258570410,-124,-266,368,58,-499,857,3182,-257,-3627
1665258570430,-124,-266,368,59,-504,824,3182,-257,-3627
1665258570434,-124,-266,368,59,-504,824,3182,-257,-3627
1665258570434,-123,-263,366,58,-501,796,3182,-257,-3627
1665258570434,-123,-263,366,47,-509,797,3182,-257,-3627
1665258570434,-123,-263,366,47,-509,797,3182,-257,-3627
1665258570455,-121,-261,366,54,-515,805,3182,-257,-3627
1665258570457,-121,-261,366,54,-515,805,3182,-257,-3627
1665258570457,-121,-261,366,52,-514,818,3158,-278,-3619
1665258570457,-121,-261,366,52,-514,818,3158,-278,-3619
1665258570479,-121,-261,365,61,-505,819,3158,-278,-3619
1665258570481,-121,-261,365,61,-500,823,3158,-278,-3619
1665258570481,-121,-261,365,60,-500,823,3158,-278,-3619
1665258570481,-121,-260,365,59,-504,825,3158,-278,-3619
1665258570501,-121,-260,365,59,-504,825,3158,-278,-3619
1665258570502,-121,-260,365,64,-512,831,3158,-278,-3619
1665258570502,-121,-260,365,64,-512,831,3158,-278,-3619
1665258570502,-121,-262,365,60,-496,846,3158,-278,-3619
1665258570515,-121,-262,365,60,-496,846,3158,-278,-3619
1665258570517,-121,-262,365,71,-505,847,3158,-278,-3619
1665258570517,-121,-262,365,68,-496,855,3158,-278,-3619
1665258570532,-121,-261,365,68,-496,855,3158,-278,-3619
1665258570534,-121,-261,365,71,-496,857,3158,-278,-3619
1665258570534,-121,-261,365,71,-496,857,3158,-278,-3619
1665258570556,-121,-261,365,71,-500,861,3158,-278,-3619
1665258570558,-121,-261,365,71,-500,861,3158,-278,-3619
1665258570558,-121,-261,365,67,-496,863,3149,-270,-3622
1665258570558,-121,-261,365,67,-496,863,3149,-270,-3622
1665258570559,-123,-262,366,71,-499,860,3149,-270,-3622
1665258570578,-123,-262,366,67,-496,857,3149,-270,-3622
1665258570580,-123,-262,366,67,-496,857,3149,-270,-3622
1665258570580,-122,-262,366,71,-505,853,3149,-270,-3622
1665258570580,-122,-262,366,71,-505,853,3149,-270,-3622
1665258570599,-122,-262,366,69,-498,854,3149,-270,-3622
1665258570601,-122,-262,366,69,-498,854,3149,-270,-3622
1665258570602,-121,-262,365,65,-497,859,3149,-270,-3622
1665258570602,-121,-262,365,65,-497,856,3149,-270,-3622
1665258570616,-121,-262,365,72,-498,856,3149,-270,-3622
1665258570618,-121,-262,366,64,-497,855,3149,-270,-3622
1665258570618,-122,-262,366,64,-497,855,3149,-270,-3622
1665258570632,-122,-262,366,67,-504,848,3149,-270,-3622
1665258570633,-122,-262,366,67,-504,848,3149,-270,-3622
1665258570634,-122,-262,365,64,-497,852,3149,-270,-3622
1665258570651,-122,-262,365,64,-497,852,3149,-270,-3622
1665258570653,-122,-262,365,64,-498,851,3149,-270,-3622
1665258570653,-122,-262,365,64,-502,848,3148,-262,-3632
1665258570674,-122,-262,366,63,-502,848,3148,-262,-3632
1665258570676,-122,-262,366,62,-500,850,3148,-262,-3632
1665258570677,-122,-262,366,62,-500,850,3148,-262,-3632
1665258570677,-122,-262,367,66,-497,854,3148,-262,-3632
1665258570697,-122,-262,367,66,-497,854,3148,-262,-3632
1665258570699,-122,-262,367,60,-492,859,3148,-262,-3632
1665258570699,-122,-262,367,60,-492,859,3148,-262,-3632
1665258570700,-122,-262,366,70,-501,860,3148,-262,-3632
1665258570700,-122,-262,366,66,-493,865,3148,-262,-3632
1665258570715,-122,-262,366,66,-493,865,3148,-262,-3632
1665258570716,-121,-262,366,69,-493,867,3148,-262,-3632
1665258570716,-121,-262,366,69,-493,867,3148,-262,-3632
1665258570730,-121,-262,366,69,-494,863,3148,-262,-3632
1665258570732,-121,-262,366,69,-494,863,3148,-262,-3632
1665258570732,-122,-262,365,64,-500,858,3148,-262,-3632
1665258570749,-122,-262,365,64,-500,858,3148,-262,-3632
1665258570751,-122,-262,365,67,-495,857,3148,-262,-3632
1665258570751,-122,-262,365,67,-492,864,3187,-245,-3652
1665258570769,-122,-263,366,67,-492,864,3187,-245,-3652
1665258570772,-122,-263,366,69,-496,863,3187,-245,-3652
1665258570772,-122,-263,366,69,-496,863,3187,-245,-3652
1665258570772,-123,-262,366,66,-498,865,3187,-245,-3652
1665258570798,-123,-262,366,66,-498,865,3187,-245,-3652
1665258570801,-123,-262,366,70,-496,863,3187,-245,-3652
1665258570801,-123,-262,366,70,-496,869,3187,-245,-3652
1665258570801,-120,-261,365,72,-494,869,3187,-245,-3652
1665258570801,-120,-261,365,76,-489,882,3187,-245,-3652
1665258570824,-120,-261,365,76,-489,882,3187,-245,-3652
1665258570825,-122,-261,365,78,-491,892,3187,-245,-3652
1665258570825,-122,-261,365,78,-491,892,3187,-245,-3652
1665258570825,-122,-261,365,74,-489,898,3187,-245,-3652
1665258570825,-122,-261,365,74,-489,898,3187,-245,-3652
1665258570842,-123,-263,366,75,-488,894,3187,-245,-3652
1665258570843,-123,-263,366,74,-490,888,3187,-245,-3652
1665258570843,-123,-263,366,74,-490,888,3187,-245,-3652
1665258570866,-123,-263,366,75,-493,884,3187,-245,-3652
1665258570868,-123,-263,366,75,-493,884,3168,-294,-3651
1665258570868,-123,-263,366,74,-490,882,3168,-294,-3651
1665258570868,-123,-263,366,74,-490,882,3168,-294,-3651
1665258570868,-123,-262,366,66,-493,879,3168,-294,-3651
1665258570900,-123,-262,366,66,-493,879,3168,-294,-3651
1665258570902,-123,-262,366,69,-495,871,3168,-294,-3651
1665258570903,-123,-262,366,40,-494,865,3168,-294,-3651
1665258570903,-123,-264,367,40,-494,865,3168,-294,-3651
1665258570903,-123,-264,367,66,-501,848,3168,-294,-3651
1665258570903,-123,-264,367,66,-501,848,3168,-294,-3651
1665258570923,-124,-267,371,62,-462,829,3168,-294,-3651
1665258570924,-124,-267,371,62,-462,829,3168,-294,-3651
1665258570924,-124,-267,371,48,-536,808,3168,-294,-3651
1665258570925,-124,-267,371,48,-536,808,3168,-294,-3651
1665258570942,-124,-264,367,45,-518,793,3168,-294,-3651
1665258570945,-124,-264,367,50,-518,787,3168,-294,-3651
1665258570945,-124,-264,367,50,-518,787,3168,-294,-3651
1665258570945,-122,-262,367,60,-501,784,3168,-294,-3651
1665258570962,-122,-262,367,60,-501,784,3141,-286,-3626
1665258570964,-122,-262,367,53,-507,796,3141,-286,-3626
1665258570964,-122,-262,367,53,-507,796,3141,-286,-3626
1665258570986,-122,-262,366,49,-515,811,3141,-286,-3626
1665258570989,-122,-262,366,49,-515,816,3141,-286,-3626
1665258570989,-122,-262,366,55,-514,816,3141,-286,-3626
1665258570989,-122,-263,365,56,-502,821,3141,-286,-3626
1665258570989,-123,-263,365,56,-502,821,3141,-286,-3626
1665258571016,-123,-263,365,62,-498,812,3141,-286,-3626
1665258571018,-123,-263,365,62,-498,812,3141,-286,-3626
1665258571019,-122,-262,364,55,-509,813,3141,-286,-3626
1665258571019,-122,-262,364,55,-509,813,3141,-286,-3626
1665258571019,-122,-262,364,52,-508,812,3141,-286,-3626
1665258571033,-122,-262,364,53,-509,818,3141,-286,-3626
1665258571035,-121,-262,364,53,-509,818,3141,-286,-3626
1665258571035,-121,-262,364,54,-496,824,3141,-286,-3626
1665258571049,-121,-262,364,54,-496,824,3141,-286,-3626
1665258571051,-121,-261,365,64,-506,825,3141,-286,-3626
1665258571051,-121,-261,365,64,-506,825,3141,-286,-3658
1665258571064,-121,-261,365,56,-497,834,3151,-266,-3658
1665258571066,-121,-261,365,56,-497,834,3151,-266,-3658
1665258571066,-121,-261,365,61,-507,833,3151,-266,-3658
1665258571084,-121,-261,365,58,-497,840,3151,-266,-3658
1665258571086,-121,-261,365,58,-497,840,3151,-266,-3658
1665258571087,-121,-261,367,62,-497,842,3151,-266,-3658
1665258571087,-121,-261,367,62,-497,842,3151,-266,-3658
1665258571108,-121,-261,367,66,-502,840,3151,-266,-3658
1665258571111,-121,-261,367,66,-502,840,3151,-266,-3658
1665258571111,-121,-262,365,57,-496,843,3151,-266,-3658
1665258571112,-121,-262,365,57,-496,843,3151,-266,-3658
1665258571125,-121,-262,365,60,-501,840,3151,-266,-3658
1665258571127,-121,-262,366,56,-498,838,3151,-266,-3658
1665258571127,-122,-262,366,56,-498,838,3151,-266,-3658
1665258571145,-122,-262,366,64,-506,833,3151,-266,-3658
1665258571147,-122,-262,366,64,-506,833,3151,-266,-3658
1665258571147,-122,-262,366,61,-499,842,3151,-266,-3658
1665258571147,-122,-262,366,61,-499,842,3151,-266,-3658
1665258571162,-122,-262,366,62,-500,842,3132,-229,-3651
1665258571163,-122,-262,366,62,-505,835,3132,-229,-3651
1665258571164,-121,-263,366,59,-505,835,3132,-229,-3651
1665258571181,-121,-263,366,54,-499,832,3132,-229,-3651
1665258571182,-121,-263,366,54,-499,832,3132,-229,-3651
1665258571182,-120,-260,366,58,-504,824,3132,-229,-3651
1665258571182,-120,-260,366,58,-504,824,3132,-229,-3651
1665258571203,-120,-260,366,57,-498,833,3132,-229,-3651
1665258571206,-120,-260,366,57,-498,833,3132,-229,-3651
1665258571206,-120,-259,364,63,-499,842,3132,-229,-3651
1665258571206,-120,-259,364,67,-500,854,3132,-229,-3651
1665258571229,-120,-259,364,67,-500,854,3132,-229,-3651
1665258571233,-122,-263,366,64,-492,858,3132,-229,-3651
1665258571233,-122,-263,366,64,-492,858,3132,-229,-3651
1665258571233,-122,-263,366,62,-505,839,3132,-229,-3651
1665258571233,-122,-263,366,62,-505,839,3132,-229,-3651
1665258571251,-122,-264,365,53,-496,827,3132,-229,-3651
1665258571253,-122,-264,365,53,-496,827,3132,-229,-3651
1665258571253,-122,-264,365,55,-501,814,3132,-268,-3687
1665258571268,-122,-264,365,50,-503,811,3150,-268,-3687
1665258571271,-120,-260,364,50,-503,811,3150,-268,-3687
1665258571271,-120,-260,364,52,-504,818,3150,-268,-3687
1665258571271,-120,-260,364,52,-504,818,3150,-268,-3687
1665258571288,-121,-263,366,60,-507,817,3150,-268,-3687
1665258571290,-121,-263,366,60,-507,817,3150,-268,-3687
1665258571290,-121,-263,366,51,-501,816,3150,-268,-3687
1665258571311,-121,-263,366,51,-501,816,3150,-268,-3687
1665258571313,-122,-263,366,54,-511,804,3150,-268,-3687
1665258571313,-122,-263,366,44,-505,786,3150,-268,-3687
1665258571313,-122,-263,366,44,-505,786,3150,-268,-3687
1665258571314,-122,-265,366,46,-519,762,3150,-268,-3687
1665258571328,-122,-265,366,46,-519,762,3150,-268,-3687
1665258571329,-122,-265,366,31,-520,746,3150,-268,-3687
1665258571350,-122,-265,366,31,-520,746,3150,-268,-3687
1665258571352,-120,-263,364,35,-516,725,3150,-268,-3687
1665258571352,-120,-263,364,35,-522,713,3150,-268,-3687
1665258571352,-120,-263,364,25,-522,713,3150,-268,-3687
1665258571352,-119,-264,365,20,-515,697,3179,-233,-3651
1665258571372,-119,-264,365,20,-515,697,3179,-233,-3651
1665258571374,-119,-264,365,11,-525,676,3179,-233,-3651
1665258571374,-119,-264,365,11,-525,676,3179,-233,-3651
1665258571375,-119,-261,364,7,-520,675,3179,-233,-3651
1665258571392,-119,-261,364,7,-520,675,3179,-233,-3651
1665258571393,-119,-261,364,15,-514,661,3179,-233,-3651
1665258571393,-119,-261,364,46,-530,649,3179,-233,-3651
1665258571411,-118,-265,367,46,-530,649,3179,-233,-3651
1665258571412,-118,-265,367,2,-535,629,3179,-233,-3651
1665258571412,-118,-265,367,2,-535,629,3179,-233,-3651
1665258571413,-117,-260,362,17,-569,606,3179,-233,-3651
1665258571431,-117,-260,362,17,-569,606,3179,-233,-3651
1665258571433,-117,-260,362,-7,-515,604,3179,-233,-3651
1665258571433,-117,-260,362,-7,-515,604,3179,-233,-3651
1665258571433,-113,-256,363,4,-508,623,3179,-233,-3651
1665258571458,-113,-256,363,27,-517,640,3179,-233,-3651
1665258571461,-113,-256,363,27,-517,640,3179,-233,-3651
1665258571461,-114,-259,363,-4,-523,667,3138,-171,-3614
1665258571461,-114,-259,363,-4,-523,667,3138,-171,-3614
1665258571461,-114,-259,363,36,-531,648,3138,-171,-3614
1665258571476,-114,-259,363,36,-531,648,3138,-171,-3614
1665258571477,-114,-261,365,26,-524,617,3138,-171,-3614
1665258571478,-114,-261,365,26,-524,595,3138,-171,-3614
1665258571493,-114,-261,365,12,-550,595,3138,-171,-3614
1665258571495,-114,-257,362,7,-543,594,3138,-171,-3614
1665258571495,-112,-257,362,7,-543,594,3138,-171,-3614
1665258571512,-112,-257,362,15,-501,635,3138,-171,-3614
1665258571513,-112,-257,362,15,-501,635,3138,-171,-3614
1665258571513,-111,-261,363,59,-439,671,3138,-171,-3614
1665258571539,-111,-261,363,59,-439,671,3138,-171,-3614
1665258571541,-111,-261,363,44,-383,615,3138,-171,-3614
1665258571542,-111,-261,363,44,-387,659,3138,-171,-3614
1665258571542,-109,-258,366,52,-387,659,3138,-171,-3614
1665258571542,-109,-258,366,15,-432,626,3138,-171,-3614
1665258571563,-109,-258,366,15,-432,626,3138,-171,-3614
1665258571565,-117,-268,365,28,-541,566,3138,-171,-3614
1665258571565,-117,-268,365,28,-541,566,3188,-125,-3655
1665258571565,-117,-268,365,-6,-543,529,3188,-125,-3655
1665258571565,-117,-268,365,-6,-543,529,3188,-125,-3655
1665258571585,-112,-266,365,-31,-544,442,3188,-125,-3655
1665258571587,-112,-266,365,-89,-513,289,3188,-125,-3655
1665258571587,-112,-266,365,-89,-513,289,3188,-125,-3655
1665258571588,-109,-257,360,-92,-454,294,3188,-125,-3655
1665258571600,-109,-257,360,-92,-454,294,3188,-125,-3655
1665258571602,-109,-257,360,-79,-367,425,3188,-125,-3655
1665258571602,-109,-257,360,-79,-367,425,3188,-125,-3655
1665258571619,-114,-270,363,-32,-123,728,3188,-125,-3655
1665258571621,-114,-270,363,-32,-123,728,3188,-125,-3655
1665258571621,-114,-270,363,-238,114,406,3188,-125,-3655
1665258571643,-114,-270,379,-203,-365,-88,3188,-125,-3655
1665258571645,-105,-252,370,-203,-365,-88,3188,-125,-3655
1665258571645,-105,-252,370,-162,-567,-114,3188,-125,-3655
1665258571645,-105,-252,370,-162,-567,-114,3188,-125,-3655
1665258571667,-96,-246,376,-173,-484,-208,3188,-125,-3655
1665258571669,-96,-246,376,-173,-484,-208,3258,-5,-3671
1665258571669,-96,-246,376,-26,-871,-262,3258,-5,-3671
1665258571669,-96,-246,376,-26,-871,-288,3258,-5,-3671
1665258571669,-93,-243,356,56,-1053,-288,3258,-5,-3671
1665258571685,-93,-243,356,37,-976,-317,3258,-5,-3671
1665258571687,-93,-243,356,37,-976,-317,3258,-5,-3671
1665258571687,-89,-239,355,54,-1084,-353,3258,-5,-3671
1665258571706,-89,-239,355,54,-1084,-353,3258,-5,-3671
1665258571709,-89,-239,355,21,-1014,-373,3258,-5,-3671
1665258571709,-89,-239,355,21,-1014,-373,3258,-5,-3671
1665258571709,-88,-243,360,-31,-817,-396,3258,-5,-3671
1665258571729,-88,-243,360,-31,-840,-482,3258,-5,-3671
1665258571731,-88,-243,360,-12,-840,-482,3258,-5,-3671
1665258571731,-76,-228,351,11,-956,-538,3258,-5,-3671
1665258571731,-76,-228,351,11,-956,-538,3258,-5,-3671
1665258571751,-76,-228,351,-61,-950,-530,3258,-5,-3671
1665258571753,-76,-228,351,-61,-950,-530,3258,-5,-3671
1665258571753,-70,-222,352,25,-1053,-580,3258,-5,-3671
1665258571753,-70,-222,352,25,-1053,-580,3258,-5,-3671
1665258571774,-70,-222,352,45,-1112,-592,3461,269,-3794
1665258571776,-70,-222,352,16,-1066,-535,3461,269,-3794
1665258571776,-58,-206,343,16,-1066,-535,3461,269,-3794
1665258571776,-58,-206,343,23,-1006,-468,3461,269,-3794
1665258571776,-58,-206,343,23,-1006,-468,3461,269,-3794
1665258571792,-56,-208,344,-5,-923,-426,3461,269,-3794
1665258571793,-56,-208,344,-5,-923,-426,3461,269,-3794
1665258571793,-56,-208,344,-19,-880,-416,3461,269,-3794
1665258571823,-56,-208,344,-19,-880,-416,3461,269,-3794
1665258571824,-49,-199,344,-3,-893,-414,3461,269,-3794
1665258571824,-49,-199,344,12,-933,-396,3461,269,-3794
1665258571824,-49,-199,344,12,-933,-396,3461,269,-3794
1665258571824,-42,-191,339,2,-953,-333,3461,269,-3794
1665258571846,-42,-191,339,2,-953,-333,3461,269,-3794
1665258571848,-42,-191,339,16,-963,-293,3461,269,-3794
1665258571849,-42,-191,339,16,-963,-293,3461,269,-3794
1665258571849,-44,-197,338,15,-942,-284,3461,269,-3794
1665258571849,-44,-197,338,15,-686,-321,3461,269,-3794
1665258571865,-44,-197,338,-14,-897,-321,3606,598,-3945
1665258571867,-44,-190,338,-21,-874,-379,3606,598,-3945
1665258571867,-40,-190,338,-21,-874,-379,3606,598,-3945
1665258571884,-40,-190,338,-21,-887,-422,3606,598,-3945
1665258571886,-40,-190,338,-21,-887,-422,3606,598,-3945
1665258571886,-38,-188,339,-22,-928,-467,3606,598,-3945
1665258571886,-38,-188,339,-22,-928,-467,3606,598,-3945
1665258571911,-38,-188,339,-15,-986,-545,3606,598,-3945
1665258571913,-38,-188,339,-7,-1049,-648,3606,598,-3945
1665258571913,-37,-185,336,-7,-1049,-648,3606,598,-3945
1665258571913,-37,-185,336,-17,-1087,-761,3606,598,-3945
1665258571913,-37,-185,336,-17,-1087,-761,3606,598,-3945
1665258571933,-31,-170,330,-18,-1122,-869,3606,598,-3945
1665258571935,-31,-170,330,-18,-1122,-869,3606,598,-3945
1665258571935,-31,-170,330,-10,-1150,-936,3606,598,-3945
1665258571936,-31,-170,330,-10,-1150,-936,3606,598,-3945
1665258571962,-22,-152,324,-28,-1156,-963,3606,598,-3945
1665258571964,-22,-152,324,-30,-1170,-971,3606,598,-3945
1665258571964,-22,-152,324,-30,-1170,-971,3606,598,-3945
1665258571964,-17,-143,319,-33,-1168,-976,3722,988,-4091
1665258571964,-17,-143,319,-33,-1168,-976,3722,988,-4091
1665258571978,-17,-143,319,-28,-1166,-995,3722,988,-4091
1665258571980,-17,-143,319,-28,-1166,-995,3722,988,-4091
1665258571980,-7,-121,311,-7,-1176,-945,3722,988,-4091
1665258571997,-7,-121,311,-7,-1176,-945,3722,988,-4091
1665258571999,-7,-121,311,-13,-1152,-865,3722,988,-4091
1665258571999,-7,-121,308,-18,-1129,-776,3722,988,-4091
1665258571999,-3,-114,308,-18,-1129,-776,3722,988,-4091
1665258572021,-3,-114,308,-22,-1099,-710,3722,988,-4091
1665258572024,-3,-114,308,-22,-1099,-710,3722,988,-4091
1665258572024,-5,-114,307,-44,-1034,-690,3722,988,-4091
1665258572024,-5,-114,307,-44,-1034,-690,3722,988,-4091
1665258572045,-5,-114,307,-35,-1006,-701,3722,988,-4091
1665258572048,-5,-114,307,-35,-1006,-695,3722,988,-4091
1665258572048,1,-98,302,-23,-1021,-695,3722,988,-4091
1665258572048,1,-98,302,-12,-1032,-651,3722,988,-4091
1665258572048,1,-98,302,-12,-1032,-651,3722,988,-4091
1665258572066,0,-94,301,-7,-1035,-606,3740,1453,-4289
1665258572068,0,-94,301,-7,-1035,-606,3740,1453,-4289
1665258572068,0,-94,301,-21,-1031,-594,3740,1453,-4289
1665258572083,0,-94,301,-21,-1031,-594,3740,1453,-4289
1665258572085,-3,-94,298,-28,-1021,-626,3740,1453,-4289
1665258572085,-3,-94,298,-31,-1008,-684,3740,1453,-4289
1665258572100,-3,-94,298,-31,-1008,-684,3740,1453,-4289
1665258572102,1,-77,295,-42,-1011,-727,3740,1453,-4289
1665258572102,1,-77,295,-42,-1011,-727,3740,1453,-4289
1665258572102,1,-77,295,-9,-1059,-712,3740,1453,-4289
1665258572121,1,-77,295,-9,-1059,-712,3740,1453,-4289
1665258572122,7,-62,290,12,-1071,-630,3740,1453,-4289
1665258572122,7,-62,290,12,-1071,-630,3740,1453,-4289
1665258572147,7,-62,290,-1,-1068,-576,3740,1453,-4289
1665258572151,7,-62,290,-1,-1084,-568,3740,1453,-4289
1665258572151,5,-58,286,-1,-1084,-568,3740,1453,-4289
1665258572151,5,-58,286,6,-1034,-553,3740,1453,-4289
1665258572151,5,-58,286,6,-1034,-553,3740,1453,-4289
1665258572151,8,-46,283,-2,-968,-502,3740,1453,-4289
1665258572164,8,-46,283,-2,-968,-502,3617,1810,-4414
1665258572166,8,-46,283,-23,-941,-448,3617,1810,-4414
1665258572181,8,-46,283,-23,-941,-448,3617,1810,-4414
1665258572183,1,-53,284,-35,-925,-453,3617,1810,-4414
1665258572183,1,-53,284,-35,-919,-527,3617,1810,-4414
1665258572196,1,-53,284,-35,-919,-527,3617,1810,-4414
1665258572198,0,-42,283,-27,-966,-613,3617,1810,-4414
1665258572198,0,-42,283,-27,-966,-613,3617,1810,-4414
1665258572215,0,-42,283,-25,-1021,-676,3617,1810,-4414
1665258572217,0,-42,283,-25,-1021,-676,3617,1810,-4414
1665258572217,4,-24,277,0,-1073,-699,3617,1810,-4414
1665258572217,4,-24,277,0,-1104,-683,3617,1810,-4414
1665258572235,4,-24,277,3,-1104,-683,3617,1810,-4414
1665258572238,6,-7,268,17,-1135,-640,3617,1810,-4414
1665258572238,6,-7,268,17,-1135,-640,3617,1810,-4414
1665258572238,6,-7,268,34,-1140,-590,3617,1810,-4414
1665258572259,6,-7,268,34,-1140,-590,3617,1810,-4414
1665258572261,13,15,258,40,-1070,-388,3617,1810,-4414
1665258572261,13,15,258,40,-1070,-388,3446,2170,-4571
1665258572261,13,15,258,24,-972,-187,3446,2170,-4571
1665258572277,13,15,258,4,-860,12,3446,2170,-4571
1665258572279,19,28,254,4,-860,12,3446,2170,-4571
1665258572279,19,28,254,31,-736,284,3446,2170,-4571
1665258572295,19,28,254,31,-736,284,3446,2170,-4571
1665258572297,8,14,258,1,-536,514,3446,2170,-4571
1665258572297,8,14,258,1,-536,514,3446,2170,-4571
1665258572314,8,14,258,-2,-431,631,3446,2170,-4571
1665258572316,8,14,258,-2,-431,631,3446,2170,-4571
1665258572316,3,4,265,0,-402,680,3446,2170,-4571
1665258572316,3,4,265,8,-414,713,3446,2170,-4571
1665258572335,3,4,265,8,-414,713,3446,2170,-4571
1665258572338,3,2,269,24,-472,731,3446,2170,-4571
1665258572338,3,2,269,24,-472,731,3446,2170,-4571
1665258572338,3,2,269,57,-548,744,3446,2170,-4571
1665258572359,3,2,269,57,-548,744,3446,2170,-4571
1665258572360,2,4,265,68,-566,768,3446,2170,-4571
1665258572360,2,4,265,68,-566,768,3446,2170,-4571
1665258572360,2,4,265,63,-553,791,3436,2290,-4560
1665258572377,2,4,265,64,-522,809,3436,2290,-4560
1665258572379,2,4,265,64,-522,809,3436,2290,-4560
1665258572379,2,4,265,55,-468,830,3436,2290,-4560
1665258572394,2,4,265,55,-468,830,3436,2290,-4560
1665258572396,2,3,267,48,-448,847,3436,2290,-4560
1665258572396,2,3,267,48,-448,847,3436,2290,-4560
1665258572418,2,3,267,56,-462,853,3436,2290,-4560
1665258572420,2,3,267,56,-484,843,3436,2290,-4560
1665258572420,0,1,268,63,-484,843,3436,2290,-4560
1665258572420,0,1,268,70,-514,837,3436,2290,-4560
1665258572420,0,1,268,70,-514,837,3436,2290,-4560
1665258572443,1,0,266,75,-526,826,3436,2290,-4560
1665258572446,1,0,266,75,-526,826,3436,2290,-4560
1665258572446,1,0,266,71,-519,819,3436,2290,-4560
1665258572446,1,0,266,71,-519,819,3436,2290,-4560
1665258572446,0,0,266,65,-502,810,3436,2290,-4560
1665258572459,0,0,266,59,-491,799,3436,2290,-4560
1665258572462,0,0,266,59,-491,799,3390,2272,-4586
1665258572462,2,3,268,49,-484,804,3390,2272,-4586
1665258572477,2,3,268,49,-484,804,3390,2272,-4586
1665258572479,2,3,268,51,-494,811,3390,2272,-4586
1665258572480,2,3,268,51,-494,811,3390,2272,-4586
1665258572497,2,3,266,56,-510,810,3390,2272,-4586
1665258572499,2,3,266,56,-510,810,3390,2272,-4586
1665258572499,2,3,266,61,-517,808,3390,2272,-4586
1665258572499,2,3,266,58,-517,796,3390,2272,-4586
1665258572523,1,-1,266,58,-517,796,3390,2272,-4586
1665258572525,1,-1,266,55,-509,778,3390,2272,-4586
1665258572525,1,-1,266,55,-509,778,3390,2272,-4586
1665258572525,1,3,266,60,-505,773,3390,2272,-4586
1665258572542,1,3,266,60,-505,773,3390,2272,-4586
1665258572544,1,3,266,48,-498,785,3390,2272,-4586
1665258572544,1,3,266,48,-498,791,3390,2272,-4586
1665258572544,1,5,267,61,-510,791,3390,2272,-4586
1665258572560,1,5,267,64,-509,802,3390,2272,-4586
1665258572562,1,5,267,64,-509,802,3390,2272,-4586
1665258572562,1,4,266,57,-510,809,3397,2289,-4587
1665258572579,1,4,266,57,-510,809,3397,2289,-4587
1665258572580,1,4,266,61,-508,810,3397,2289,-4587
1665258572580,1,4,266,61,-508,810,3397,2289,-4587
1665258572597,1,3,266,63,-504,812,3397,2289,-4587
1665258572599,1,3,266,63,-502,815,3397,2289,-4587
1665258572599,1,3,266,59,-502,815,3397,2289,-4587
1665258572599,1,4,266,65,-501,818,3397,2289,-4587
1665258572617,1,4,266,65,-501,818,3397,2289,-4587
1665258572618,1,4,266,66,-499,828,3397,2289,-4587
1665258572618,1,4,266,66,-499,828,3397,2289,-4587
1665258572641,-1,6,265,70,-502,839,3397,2289,-4587
1665258572644,-1,6,265,70,-502,839,3397,2289,-4587
1665258572644,-1,6,265,73,-492,860,3397,2289,-4587
1665258572644,-1,6,265,74,-496,859,3397,2289,-4587
1665258572644,1,3,267,74,-496,859,3397,2289,-4587
1665258572660,1,3,267,75,-495,858,3397,2289,-4587
1665258572661,1,3,267,75,-495,858,3397,2289,-4587
1665258572661,0,3,266,74,-494,849,3417,2280,-4593
1665258572676,0,3,266,74,-494,849,3417,2280,-4593
1665258572678,0,3,266,72,-499,843,3417,2280,-4593
1665258572678,0,3,266,72,-499,843,3417,2280,-4593
1665258572696,0,3,266,68,-497,839,3417,2280,-4593
1665258572698,0,3,266,69,-499,834,3417,2280,-4593
1665258572698,0,3,266,69,-499,834,3417,2280,-4593
1665258572698,1,4,266,69,-502,836,3417,2280,-4593
1665258572718,1,4,266,69,-502,836,3417,2280,-4593
1665258572722,1,4,266,67,-500,836,3417,2280,-4593
1665258572722,1,4,266,67,-500,836,3417,2280,-4593
1665258572722,1,4,266,64,-497,840,3417,2280,-4593
1665258572722,1,4,266,64,-497,844,3417,2280,-4593
1665258572744,1,4,266,65,-497,844,3417,2280,-4593
1665258572747,1,5,266,65,-496,856,3417,2280,-4593
1665258572747,1,5,266,65,-496,856,3417,2280,-4593
1665258572747,1,5,266,71,-499,862,3417,2280,-4593
1665258572764,1,5,266,71,-499,862,3417,2280,-4593
1665258572765,1,3,266,71,-495,865,3417,2280,-4593
1665258572765,1,3,266,71,-495,865,3403,2270,-4551
1665258572781,1,3,266,70,-494,862,3403,2270,-4551
1665258572782,1,3,266,70,-495,851,3403,2270,-4551
1665258572782,0,3,266,68,-495,851,3403,2270,-4551
1665258572782,0,3,266,63,-488,848,3403,2270,-4551
1665258572798,0,3,266,63,-488,848,3403,2270,-4551
1665258572800,2,3,266,69,-495,852,3403,2270,-4551
1665258572800,2,3,266,69,-495,852,3403,2270,-4551
1665258572822,2,3,266,65,-491,849,3403,2270,-4551
1665258572824,2,3,266,65,-491,849,3403,2270,-4551
1665258572824,1,2,266,67,-496,842,3403,2270,-4551
1665258572824,1,2,266,70,-502,837,3403,2270,-4551
1665258572845,1,2,266,70,-502,837,3403,2270,-4551
1665258572848,0,2,266,62,-494,842,3403,2270,-4551
1665258572848,0,2,266,62,-494,842,3403,2270,-4551
1665258572848,0,2,266,65,-499,832,3403,2270,-4551
1665258572848,0,2,266,65,-499,832,3403,2270,-4551
1665258572863,1,3,265,61,-494,828,3403,2270,-4551
1665258572864,1,3,265,61,-494,828,3387,2284,-4582
1665258572864,1,3,265,60,-494,829,3387,2284,-4582
1665258572882,1,3,265,62,-498,828,3387,2284,-4582
1665258572884,1,4,267,62,-498,828,3387,2284,-4582
1665258572884,1,4,267,65,-501,831,3387,2284,-4582
1665258572905,1,4,267,65,-501,831,3387,2284,-4582
1665258572907,1,4,267,65,-500,838,3387,2284,-4582
1665258572907,1,4,267,65,-500,838,3387,2284,-4582
1665258572907,1,4,267,64,-499,846,3387,2284,-4582
1665258572907,1,4,267,64,-499,846,3387,2284,-4582
1665258572932,0,4,266,64,-500,846,3387,2284,-4582
1665258572934,0,4,266,64,-490,847,3387,2284,-4582
1665258572934,0,4,266,64,-490,847,3387,2284,-4582
1665258572934,1,3,266,63,-491,852,3387,2284,-4582
1665258572934,1,3,266,63,-491,852,3387,2284,-4582
1665258572960,1,3,266,59,-492,855,3387,2284,-4582
1665258572962,1,3,266,59,-492,855,3387,2284,-4582
1665258572962,1,4,267,64,-492,853,3387,2284,-4582
1665258572962,1,4,267,67,-497,855,3387,2284,-4582
1665258572962,1,4,267,67,-497,855,3390,2281,-4585
1665258572977,2,4,265,66,-499,855,3390,2281,-4585
1665258572979,2,4,265,66,-499,855,3390,2281,-4585
1665258572979,2,4,265,70,-499,853,3390,2281,-4585
1665258572999,2,4,265,70,-499,853,3390,2281,-4585
1665258573002,1,1,266,67,-498,854,3390,2281,-4585
1665258573002,1,1,266,67,-498,854,3390,2281,-4585
1665258573002,1,1,266,67,-495,846,3390,2281,-4585
1665258573025,1,1,266,75,-503,839,3390,2281,-4585
1665258573028,1,4,267,75,-503,839,3390,2281,-4585
1665258573028,1,4,267,72,-504,843,3390,2281,-4585
1665258573028,1,4,267,72,-504,843,3390,2281,-4585
1665258573028,0,3,266,73,-505,843,3390,2281,-4585
1665258573052,0,3,266,73,-505,843,3390,2281,-4585
1665258573055,0,3,266,69,-503,844,3390,2281,-4585
1665258573056,0,3,266,69,-503,844,3390,2281,-4585
1665258573056,1,3,266,73,-505,845,3390,2281,-4585
1665258573056,1,3,266,71,-505,843,3390,2281,-4585
1665258573070,1,3,266,71,-505,843,3397,2296,-4581
1665258573072,1,3,266,71,-505,843,3397,2296,-4581
1665258573072,1,3,266,71,-505,843,3397,2296,-4581
1665258573084,1,3,266,68,-500,843,3397,2296,-4581
1665258573086,1,3,266,68,-500,843,3397,2296,-4581
1665258573087,1,3,265,62,-496,842,3397,2296,-4581
1665258573105,1,3,265,62,-496,839,3397,2296,-4581
1665258573107,1,3,265,68,-500,839,3397,2296,-4581
1665258573107,1,3,266,65,-499,842,3397,2296,-4581
1665258573130,1,3,266,65,-499,842,3397,2296,-4581
1665258573132,1,3,266,61,-495,843,3397,2296,-4581
1665258573132,1,3,266,61,-495,843,3397,2296,-4581
1665258573132,0,3,265,72,-504,838,3397,2296,-4581
1665258573132,0,3,265,72,-504,838,3397,2296,-4581
1665258573151,0,3,265,70,-501,840,3397,2296,-4581
1665258573153,0,3,265,67,-499,843,3397,2296,-4581
1665258573154,0,3,266,67,-499,843,3397,2296,-4581
1665258573154,0,3,266,73,-508,840,3397,2296,-4581
1665258573166,0,3,266,73,-508,840,3397,2296,-4581
1665258573167,1,3,266,73,-507,840,3399,2293,-4555
1665258573181,1,3,266,73,-507,840,3399,2293,-4555
1665258573182,1,3,266,68,-503,842,3399,2293,-4555
1665258573182,1,3,266,68,-503,842,3399,2293,-4555
1665258573206,1,3,267,67,-500,845,3399,2293,-4555
1665258573207,1,3,267,70,-500,840,3399,2293,-4555
1665258573207,1,3,267,70,-500,840,3399,2293,-4555
1665258573207,1,0,265,64,-498,834,3399,2293,-4555
1665258573207,1,0,265,64,-498,834,3399,2293,-4555
1665258573229,1,0,265,68,-504,808,3399,2293,-4555
1665258573232,1,0,265,68,-504,808,3399,2293,-4555
1665258573232,1,5,265,82,-508,809,3399,2293,-4555
1665258573232,1,5,265,82,-508,809,3399,2293,-4555
1665258573246,1,5,265,57,-500,836,3399,2293,-4555
1665258573247,1,5,267,61,-503,840,3399,2293,-4555
1665258573248,0,3,267,61,-503,840,3399,2293,-4555
1665258573262,0,3,267,75,-501,838,3399,2293,-4555
1665258573264,0,3,267,75,-501,838,3399,2293,-4555
1665258573264,0,4,265,63,-499,849,3360,2280,-4574
1665258573278,0,4,265,63,-499,849,3360,2280,-4574
1665258573281,0,4,265,63,-496,849,3360,2280,-4574
1665258573281,0,4,265,63,-497,847,3360,2280,-4574
1665258573297,1,4,265,77,-497,847,3360,2280,-4574
1665258573299,1,4,265,65,-500,852,3360,2280,-4574
1665258573299,1,4,265,65,-500,852,3360,2280,-4574
1665258573299,0,3,266,73,-497,846,3360,2280,-4574
1665258573318,0,3,266,73,-497,846,3360,2280,-4574
1665258573321,0,3,266,69,-497,845,3360,2280,-4574
1665258573322,0,3,266,69,-497,845,3360,2280,-4574
1665258573322,2,3,265,59,-495,848,3360,2280,-4574
1665258573341,2,3,265,63,-492,842,3360,2280,-4574
1665258573343,2,3,265,63,-492,842,3360,2280,-4574
1665258573343,0,5,266,67,-496,842,3360,2280,-4574
1665258573343,0,5,266,67,-496,842,3360,2280,-4574
1665258573361,0,5,266,66,-499,846,3360,2280,-4574
1665258573363,0,5,266,66,-499,846,3360,2280,-4574
1665258573363,0,4,266,67,-495,847,3360,2280,-4574
1665258573378,0,4,266,67,-495,847,3419,2275,-4515
1665258573380,0,4,266,68,-500,848,3419,2275,-4515
1665258573380,0,4,266,67,-501,851,3419,2275,-4515
1665258573398,0,4,265,67,-501,851,3419,2275,-4515
1665258573400,0,4,265,60,-493,856,3419,2275,-4515
1665258573400,0,4,265,60,-493,856,3419,2275,-4515
1665258573400,1,2,267,68,-498,856,3419,2275,-4515
1665258573418,1,2,267,68,-498,856,3419,2275,-4515
1665258573421,1,2,267,65,-492,855,3419,2275,-4515
1665258573422,1,2,267,65,-492,855,3419,2275,-4515
1665258573422,1,3,265,63,-491,852,3419,2275,-4515
1665258573442,1,3,265,66,-492,846,3419,2275,-4515
1665258573443,1,3,265,66,-492,846,3419,2275,-4515
1665258573443,0,3,265,59,-491,845,3419,2275,-4515
1665258573443,0,3,265,59,-491,845,3419,2275,-4515
1665258573460,0,3,265,61,-497,842,3419,2275,-4515
1665258573462,0,3,265,61,-497,842,3419,2275,-4515
1665258573462,0,4,267,58,-496,841,3419,2275,-4515
1665258573462,0,4,267,58,-496,845,3345,2287,-4505
1665258573477,0,4,267,58,-496,845,3345,2287,-4505
1665258573479,1,5,265,60,-496,846,3345,2287,-4505
1665258573479,1,5,265,60,-496,846,3345,2287,-4505
1665258573500,1,5,265,62,-494,849,3345,2287,-4505
1665258573502,1,5,265,62,-494,849,3345,2287,-4505
1665258573502,1,2,266,61,-492,848,3345,2287,-4505
1665258573502,1,2,266,61,-492,848,3345,2287,-4505
1665258573526,1,2,266,61,-489,842,3345,2287,-4505
1665258573529,1,2,266,61,-492,841,3345,2287,-4505
1665258573529,1,3,266,61,-492,841,3345,2287,-4505
1665258573529,1,3,266,60,-496,841,3345,2287,-4505
1665258573530,1,3,266,60,-496,841,3345,2287,-4505
1665258573543,1,4,265,61,-495,842,3345,2287,-4505
1665258573545,1,4,265,61,-495,842,3345,2287,-4505
1665258573545,1,4,265,57,-494,844,3345,2287,-4505
1665258573561,1,4,265,57,-494,844,3345,2287,-4505
1665258573562,1,5,266,61,-490,843,3345,2287,-4505
1665258573562,1,5,266,67,-497,840,3345,2287,-4505
1665258573578,1,5,266,67,-497,840,3389,2293,-4519
1665258573580,1,3,266,64,-498,841,3389,2293,-4519
1665258573580,1,3,266,64,-498,841,3389,2293,-4519
1665258573599,1,3,266,67,-496,837,3389,2293,-4519
1665258573601,1,3,266,67,-496,837,3389,2293,-4519
1665258573601,1,5,267,66,-503,839,3389,2293,-4519
1665258573601,1,5,267,66,-503,846,3389,2293,-4519
1665258573626,1,5,267,68,-506,846,3389,2293,-4519
1665258573629,1,5,265,68,-502,846,3389,2293,-4519
1665258573629,1,5,265,68,-502,846,3389,2293,-4519
1665258573629,1,5,265,69,-502,850,3389,2293,-4519
1665258573629,1,5,265,69,-502,850,3389,2293,-4519
1665258573642,1,3,265,69,-499,852,3389,2293,-4519
1665258573644,1,3,265,69,-499,852,3389,2293,-4519
1665258573644,1,3,265,68,-498,853,3389,2293,-4519
1665258573660,1,3,265,68,-498,855,3389,2293,-4519
1665258573662,0,5,265,69,-498,855,3389,2293,-4519
1665258573662,0,5,265,70,-501,855,3389,2293,-4519
1665258573677,0,5,265,70,-501,855,3371,2278,-4537
1665258573679,0,3,266,68,-502,859,3371,2278,-4537
1665258573679,0,3,266,68,-502,859,3371,2278,-4537
1665258573704,0,3,266,68,-507,854,3371,2278,-4537
1665258573706,0,3,266,68,-507,854,3371,2278,-4537
1665258573706,1,3,266,69,-505,847,3371,2278,-4537
1665258573706,1,3,266,65,-503,841,3371,2278,-4537
1665258573706,1,3,266,65,-503,841,3371,2278,-4537
1665258573733,0,2,266,59,-499,837,3371,2278,-4537
1665258573735,0,2,266,59,-499,837,3371,2278,-4537
1665258573735,0,2,266,59,-501,829,3371,2278,-4537
1665258573735,0,2,266,59,-501,829,3371,2278,-4537
1665258573735,0,5,266,61,-506,828,3371,2278,-4537
1665258573735,0,5,266,61,-506,828,3371,2278,-4537
1665258573750,0,5,266,62,-504,840,3371,2278,-4537
1665258573751,0,5,266,68,-506,847,3371,2278,-4537
1665258573751,0,4,266,68,-506,847,3371,2278,-4537
1665258573770,0,4,266,67,-501,853,3371,2278,-4537
1665258573772,0,4,266,67,-501,853,3371,2278,-4537
1665258573772,0,3,265,69,-505,847,3394,2274,-4566
1665258573772,0,3,265,69,-505,847,3394,2274,-4566
1665258573794,0,3,265,69,-502,847,3394,2274,-4566
1665258573797,0,3,265,69,-502,845,3394,2274,-4566
1665258573797,1,3,266,63,-496,845,3394,2274,-4566
1665258573797,1,3,266,71,-505,838,3394,2274,-4566
1665258573819,1,3,266,71,-505,838,3394,2274,-4566
1665258573821,1,5,266,68,-508,840,3394,2274,-4566
1665258573821,1,5,266,68,-508,840,3394,2274,-4566
1665258573821,1,5,266,71,-510,839,3394,2274,-4566
1665258573822,1,5,266,71,-510,839,3394,2274,-4566
1665258573834,1,4,265,69,-506,841,3394,2274,-4566
1665258573836,1,4,265,70,-511,839,3394,2274,-4566
1665258573849,1,4,265,70,-511,839,3394,2274,-4566
1665258573851,0,5,264,75,-511,842,3394,2274,-4566
1665258573851,0,5,264,75,-511,842,3394,2274,-4566
1665258573868,0,5,264,58,-494,856,3394,2274,-4566
1665258573870,0,5,264,58,-494,856,3394,2274,-4566
1665258573870,1,4,266,63,-499,854,3393,2273,-4539
1665258573870,1,4,266,63,-499,854,3393,2273,-4539
1665258573895,1,4,266,72,-497,851,3393,2273,-4539
1665258573897,1,4,266,57,-490,854,3393,2273,-4539
1665258573897,0,4,264,57,-490,854,3393,2273,-4539
1665258573897,0,4,264,67,-500,849,3393,2273,-4539
1665258573898,0,4,264,67,-500,849,3393,2273,-4539
1665258573917,1,5,267,70,-496,847,3393,2273,-4539
1665258573918,1,5,267,70,-496,847,3393,2273,-4539
1665258573919,1,5,267,62,-500,850,3393,2273,-4539
1665258573919,1,5,267,62,-500,850,3393,2273,-4539
1665258573937,1,4,265,63,-497,846,3393,2273,-4539
1665258573939,1,4,265,67,-501,842,3393,2273,-4539
1665258573939,1,4,265,67,-501,842,3393,2273,-4539
1665258573953,0,4,265,62,-492,846,3393,2273,-4539
1665258573955,0,4,265,62,-492,846,3393,2273,-4539
1665258573955,0,4,265,63,-487,848,3393,2273,-4539
1665258573979,0,4,265,63,-487,848,3393,2273,-4539
1665258573981,1,3,266,65,-494,849,3393,2273,-4539
1665258573981,1,3,266,65,-494,845,3397,2271,-4498
1665258573981,1,3,266,66,-494,845,3397,2271,-4498
1665258573981,-15,3,265,67,-497,844,3397,2271,-4498
1665258574012,0,3,265,67,-497,844,3397,2271,-4498
1665258574015,0,3,265,62,-497,848,3397,2271,-4498
1665258574015,0,3,265,62,-497,848,3397,2271,-4498
1665258574015,1,4,265,69,-500,843,3397,2271,-4498
1665258574015,1,4,265,69,-500,843,3397,2271,-4498
1665258574016,1,4,265,67,-499,845,3397,2271,-4498
1665258574032,1,4,265,65,-503,845,3397,2271,-4498
1665258574034,0,2,265,65,-503,845,3397,2271,-4498
1665258574034,0,2,265,68,-501,832,3397,2271,-4498
1665258574034,0,2,265,68,-501,832,3397,2271,-4498
1665258574051,0,2,266,73,-499,834,3397,2271,-4498
1665258574053,0,2,266,73,-499,834,3397,2271,-4498
1665258574053,0,2,266,60,-520,835,3397,2271,-4498
1665258574073,0,2,266,60,-520,835,3397,2271,-4498
1665258574075,1,5,264,68,-518,815,3397,2271,-4498
1665258574075,1,5,264,72,-522,820,3386,2255,-4498
1665258574075,1,5,264,72,-522,820,3386,2255,-4498
1665258574098,1,3,266,62,-524,828,3386,2255,-4498
1665258574100,1,3,266,62,-524,828,3386,2255,-4498
1665258574100,1,3,266,69,-520,820,3386,2255,-4498
1665258574100,1,3,266,69,-520,820,3386,2255,-4498
1665258574100,0,4,264,71,-517,829,3386,2255,-4498
1665258574118,0,4,264,71,-517,829,3386,2255,-4498
1665258574121,0,4,264,57,-510,832,3386,2255,-4498
1665258574121,0,4,263,68,-511,816,3386,2255,-4498
1665258574121,-2,3,263,68,-511,816,3386,2255,-4498
1665258574142,-2,3,263,60,-494,805,3386,2255,-4498
1665258574144,-2,3,263,60,-494,805,3386,2255,-4498
1665258574144,0,4,265,50,-493,810,3386,2255,-4498
1665258574144,0,4,265,50,-493,810,3386,2255,-4498
1665258574161,0,4,265,62,-512,812,3386,2255,-4498
1665258574163,0,4,265,62,-512,812,3386,2255,-4498
1665258574163,0,4,267,54,-486,812,3386,2255,-4498
1665258574163,0,4,267,49,-496,811,3386,2255,-4498
1665258574181,0,4,267,49,-496,811,3375,2287,-4567
1665258574182,1,5,265,54,-496,810,3375,2287,-4567
1665258574182,1,5,265,54,-496,810,3375,2287,-4567
1665258574202,1,5,265,52,-481,809,3375,2287,-4567
1665258574205,1,5,265,52,-481,809,3375,2287,-4567
1665258574205,0,7,265,52,-488,816,3375,2287,-4567
1665258574205,0,7,265,64,-498,830,3375,2287,-4567
1665258574221,0,7,265,64,-498,830,3375,2287,-4567
1665258574223,0,5,266,64,-492,848,3375,2287,-4567
1665258574223,0,5,266,64,-492,848,3375,2287,-4567
